acc_x, acc_y, angular_z, stamp, 
0.018326878547668457, 0.0032871365547180176, -4.963284867587354e-07, 1791403393422702317, 
0.03803914785385132, -0.021898865699768066, -1.0733663680768466e-11, 1791403393452975427, 
-0.01072460412979126, 0.031993865966796875, -4.070062929767081e-11, 1791403393485001931, 
0.0015847086906433105, 0.029942750930786133, -5.326989210182863e-07, 1791403393542795685, 
0.010484099388122559, -0.004462242126464844, -4.958748753346961e-07, 1791403393572856232, 
0.010451972484588623, -0.015358507633209229, -6.733010435710205e-07, 1791403393594992601, 
-0.022079825401306152, -0.022847235202789307, -5.274401454304493e-07, 1791403393623259481, 
-0.009192287921905518, 0.009505748748779297, -5.035106191570152e-07, 1791403393652872683, 
-0.014798939228057861, -0.001475691795349121, -4.973012398211606e-07, 1791403393682854029, 
-0.02524024248123169, -0.01591438055038452, -4.96107593091188e-07, 1791403393712907296, 
0.003678262233734131, -0.025017619132995605, -4.956907108859039e-07, 1791403393742981158, 
0.014751791954040527, 0.005702853202819824, -4.975250702133613e-07, 1791403393772939390, 
0.01116323471069336, 0.007587850093841553, -7.499394480787581e-11, 1791403393804815339, 
-0.021131277084350586, -0.004894435405731201, -4.8219724490297264e-11, 1791403393835037627, 
-0.0029395222663879395, 0.016772031784057617, -3.967405564945571e-12, 1791403393862478590, 
0.0009524822235107422, 0.007726550102233887, 2.9455857807161595e-11, 1791403393892992681, 
0.011670112609863281, 0.011222004890441895, 3.1820832649887155e-11, 1791403393923038132, 
-0.01889646053314209, 0.004159867763519287, 2.4470493184317487e-11, 1791403393952107173, 
0.0008165240287780762, -0.02249199151992798, 8.984506247790115e-12, 1791403393983106467, 
-0.013366878032684326, 0.01900482177734375, 4.283631014980107e-12, 1791403394012355343, 
0.045999765396118164, -0.022240638732910156, 8.964931542004152e-13, 1791403394044036469, 
-0.008226752281188965, -0.01867806911468506, 3.532924967782604e-12, 1791403394075649766, 
-0.024435341358184814, 0.022890985012054443, 1.950038392941778e-12, 1791403394103284948, 
-0.029623329639434814, 0.026505351066589355, -9.28392031252107e-12, 1791403394133134038, 
0.03020244836807251, -0.01475977897644043, 4.927718491724668e-07, 1791403394163371617, 
0.03368484973907471, -0.01826423406600952, 4.996549209649985e-07, 1791403394193191628, 
-0.009727656841278076, -0.039559781551361084, -6.366287346096174e-11, 1791403394223216477, 
-0.059812188148498535, 0.003941833972930908, -6.564007733776432e-11, 1791403394253678482, 
-0.0056650638580322266, 0.034594833850860596, -1.5453332902189527e-10, 1791403394284771041, 
0.009058713912963867, 0.002325773239135742, 4.76986463061707e-07, 1791403394315995981, 
0.035888671875, -0.0067574381828308105, 5.354286726383802e-07, 1791403394343814094, 
-0.012722373008728027, -0.03180438280105591, -1.7706209618651674e-10, 1791403394373295513, 
-0.04320073127746582, 0.027644038200378418, 4.967795479647681e-07, 1791403394403280428, 
0.028942584991455078, 0.0257871150970459, 4.955358838547083e-07, 1791403394433336706, 
0.04471009969711304, -0.008456051349639893, -1.8199505926269606e-10, 1791403394463359103, 
-0.01492917537689209, -0.013674139976501465, -7.66302705126417e-11, 1791403394492431298, 
-0.05113750696182251, -0.01710754632949829, 6.992526782741117e-12, 1791403394525428355, 
-0.022268712520599365, 0.01886993646621704, -3.325002940622217e-13, 1791403394556239234, 
0.0639350414276123, 0.00439220666885376, -2.0411917761486803e-11, 1791403394583397673, 
0.013225555419921875, -0.024297475814819336, 5.666496666737495e-11, 1791403394612465180, 
-0.021146953105926514, -0.022181212902069092, 1.516164752753849e-10, 1791403394643382465, 
-0.033543527126312256, 0.008681118488311768, 1.966329266804089e-10, 1791403394672456842, 
0.024300456047058105, 0.03391313552856445, 4.7507047873123976e-11, 1791403394703511666, 
0.017139315605163574, -0.02368342876434326, 4.933928268870321e-07, 1791403394733713912, 
-0.01881730556488037, 0.001472771167755127, 2.46080710871785e-11, 1791403394764829779, 
-0.013177096843719482, 0.03190946578979492, -3.121312647469347e-11, 1791403394796947213, 
0.012127399444580078, 0.01539379358291626, -9.058956506040445e-11, 1791403394823569082, 
-0.0005129575729370117, -0.004669368267059326, -4.444425624333964e-11, 1791403394853562563, 
-0.013469994068145752, -0.02459549903869629, -1.3351622235106827e-12, 1791403394883574132, 
-0.060327351093292236, -0.02093040943145752, 1.4076633973390931e-11, 1791403394913602661, 
0.013600409030914307, 0.02044200897216797, 1.2874103528665767e-11, 1791403394943594274, 
0.05480754375457764, -0.00847846269607544, -5.494138531214471e-12, 1791403394973881144, 
0.00428694486618042, 0.002227306365966797, 5.815502874294036e-12, 1791403395005493636, 
0.01653224229812622, -0.00843590497970581, 2.4910089192948112e-11, 1791403395037209054, 
-0.032012760639190674, 0.002490997314453125, -5.626876285485053e-07, 1791403395063687335, 
0.006188929080963135, 0.026074349880218506, 4.504308091765821e-11, 1791403395093659101, 
0.01864635944366455, 0.009701013565063477, 2.4950587806537766e-11, 1791403395123649017, 
0.006024658679962158, -0.000971674919128418, 2.8586362109375593e-11, 1791403395153678196, 
-0.04087191820144653, -0.009786605834960938, -4.953268530101794e-07, 1791403395183757870, 
-0.0247572660446167, 0.035222649574279785, 6.401967893717653e-11, 1791403395213766071, 
0.027483999729156494, 0.008173227310180664, 3.778265673721318e-11, 1791403395245049578, 
0.029086709022521973, -0.0117034912109375, 2.7534592223785823e-11, 1791403395276815223, 
-0.007328629493713379, -0.000908195972442627, -5.509641752887718e-07, 1791403395303857678, 
-0.027039527893066406, 0.010112345218658447, 1.4301703037059978e-10, 1791403395333830679, 
0.037694334983825684, 0.03174316883087158, -6.316418502533568e-07, 1791403395357419492, 
0.010317683219909668, -0.00793910026550293, 2.0334752140286817e-10, 1791403395393882877, 
0.016999661922454834, -0.024196386337280273, -4.96924653332832e-07, 1791403395423860845, 
-0.024543702602386475, -0.018620967864990234, -4.946087852485287e-07, 1791403395453975023, 
-0.0170019268989563, 0.026483237743377686, -4.7658498201715873e-07, 1791403395485226394, 
0.04426842927932739, 0.04256540536880493, 2.0488161831618068e-10, 1791403395516822103, 
0.026072978973388672, -0.0043288469314575195, 1.5756379164329683e-10, 1791403395544013652, 
-0.02076733112335205, -0.009689688682556152, -5.092707963323873e-07, 1791403395573265828, 
-0.03133106231689453, 0.010068714618682861, -4.840123275647084e-07, 1791403395604045025, 
0.007530927658081055, 0.018370211124420166, -0.0005931558288098442, 1791403395633965535, 
-0.7035284042358398, 0.20777958631515503, 0.00977284696377697, 1791403395664059358, 
0.2940293550491333, 0.2608209252357483, 0.27123591362364424, 1791403395694065194, 
-0.3869655132293701, 0.699413001537323, 0.43813483788112806, 1791403395724938578, 
0.1139901876449585, -0.42099493741989136, 0.4156568264859464, 1791403395757060781, 
0.11688536405563354, -0.3866928219795227, 0.47424637909491896, 1791403395784104700, 
-0.07191866636276245, 0.2611986994743347, 0.4040501871001559, 1791403395814097256, 
0.07353883981704712, 0.23940205574035645, 0.39833587665511266, 1791403395844135238, 
-0.3155750036239624, 0.02741903066635132, 0.4170719084384849, 1791403395874091394, 
-0.02824336290359497, -0.44693833589553833, 0.43814112713592973, 1791403395904309573, 
0.08461898565292358, -0.07629436254501343, 0.4244036612588733, 1791403395934176872, 
0.16045844554901123, 0.2872251272201538, 0.3836135346624455, 1791403395965112379, 
0.04491877555847168, 0.008593142032623291, 0.3705374696588058, 1791403395997685939, 
-0.060024261474609375, -0.15023458003997803, 0.4785194821720873, 1791403396023232169, 
0.06365221738815308, 0.03580176830291748, 0.3964689438291268, 1791403396054188968, 
-0.018680095672607422, 0.18376928567886353, 0.40775077183146763, 1791403396084227834, 
-0.4084396958351135, 0.03767037391662598, 0.42674305222988546, 1791403396114231457, 
0.2334381341934204, -0.3767892122268677, 0.44831260957492386, 1791403396144276549, 
-0.12466895580291748, -0.02838665246963501, 0.42489500358791754, 1791403396174322059, 
0.1380520462989807, 0.12690836191177368, 0.3850275883577757, 1791403396205241168, 
-0.26671671867370605, -0.01902759075164795, 0.3343606845746089, 1791403396237119211, 
0.12554579973220825, -0.07029610872268677, 0.3925092693192118, 1791403396264412378, 
0.1494082808494568, 0.03261357545852661, 0.39303148735666427, 1791403396294391347, 
-0.05642831325531006, 0.201826810836792, 0.3974049470408207, 1791403396324361232, 
-0.06613439321517944, -0.18124175071716309, 0.41314190595902245, 1791403396354386303, 
0.007408738136291504, -0.2556176781654358, 0.38736820585335796, 1791403396384693373, 
0.0767754316329956, 0.11725670099258423, 0.39391903180369703, 1791403396414481725, 
0.2218083143234253, 0.04325169324874878, 0.387727754131203, 1791403396445351912, 
-0.06478112936019897, 0.011794984340667725, 0.3811438172941795, 1791403396476873359, 
-0.1664295196533203, -0.0707007646560669, 0.43027564268110463, 1791403396505593458, 
0.18765121698379517, 0.029189109802246094, 0.4145541201444197, 1791403396534505775, 
-0.022270679473876953, 0.04546248912811279, 0.4054888499230641, 1791403396564509298, 
-0.1390005350112915, -0.0422062873840332, 0.40153671770963684, 1791403396594514556, 
0.01201927661895752, -0.0990743637084961, 0.39755242444156524, 1791403396624526698, 
0.15308523178100586, 0.047119081020355225, 0.38657141087907, 1791403396654605850, 
-0.03164118528366089, 0.09967207908630371, 0.4040878824288819, 1791403396684987718, 
-0.10411429405212402, -0.0851525068283081, 0.404431080678768, 1791403396716910300, 
0.11814916133880615, -0.08545845746994019, 0.43984933729225406, 1791403396744627772, 
0.026027023792266846, -0.028777360916137695, 0.3998560091919937, 1791403396774640129, 
-0.19948428869247437, 0.03265833854675293, 0.37579269080417427, 1791403396804620588, 
-0.012849032878875732, 0.10819685459136963, 0.37536251630798423, 1791403396834916145, 
0.3217817544937134, 0.004482388496398926, 0.4051749787322675, 1791403396864666034, 
-0.1665405035018921, -0.030617237091064453, 0.4143857854760672, 1791403396894680228, 
0.0970679521560669, -0.054109811782836914, 0.42092372742957146, 1791403396924991841, 
0.10156029462814331, 0.11265575885772705, 0.39703309475308546, 1791403396956453616, 
-0.0564345121383667, 0.0014455914497375488, 0.4459803440676826, 1791403396984792787, 
-0.13418316841125488, -0.12513834238052368, 0.40427288226750835, 1791403397014437400, 
0.1274024248123169, -0.07619267702102661, 0.37902739836370036, 1791403397044468829, 
0.024922668933868408, 0.05258995294570923, 0.3499299769287007, 1791403397075493844, 
-0.07641971111297607, 0.15567082166671753, 0.384402200565173, 1791403397105480980, 
0.17507445812225342, 0.05363267660140991, 0.42545023661599796, 1791403397135501637, 
-0.14422070980072021, -0.021801769733428955, 0.4317289240505641, 1791403397165590785, 
-0.08144646883010864, -0.11839103698730469, 0.4089973259519727, 1791403397197288046, 
0.13264590501785278, -0.05098015069961548, 0.4515354577749156, 1791403397224949669, 
-0.043688952922821045, -0.021895289421081543, 0.3879017255524931, 1791403397255667468, 
-0.04026216268539429, 0.07058322429656982, 0.37194531593618546, 1791403397285655436, 
0.11173641681671143, 0.01906871795654297, 0.35484178070419636, 1791403397307212267, 
0.09552764892578125, 0.06633692979812622, 0.4090915801985912, 1791403397345542382, 
-0.05650174617767334, 0.18204671144485474, 0.40443915607072384, 1791403397375506019, 
-0.05318814516067505, -0.07010513544082642, 0.4022735829759531, 1791403397405602521, 
-0.02555084228515625, -0.12476569414138794, 0.37648829333040934, 1791403397437265099, 
-0.02487969398498535, 0.01337498426437378, 0.41223880653903544, 1791403397467020842, 
0.05768007040023804, 0.05003780126571655, 0.43055902192310425, 1791403397495543143, 
0.10384804010391235, -0.07994753122329712, 0.41319420046433936, 1791403397525552468, 
-0.019414126873016357, -0.06058168411254883, 0.40822490183803806, 1791403397555566178, 
0.012115895748138428, 0.016041815280914307, 0.40522231591853514, 1791403397585603830, 
-0.06749677658081055, 0.1458567976951599, 0.39444844171205307, 1791403397615571255, 
-0.05210036039352417, -0.12061190605163574, 0.4040365827531345, 1791403397645726748, 
-0.02288609743118286, -0.09342819452285767, 0.36887499179933136, 1791403397677285103, 
-0.11454945802688599, 0.08757519721984863, 0.3682647477178422, 1791403397707861519, 
-0.03304570913314819, 0.08716285228729248, 0.41817512931121203, 1791403397735639457, 
0.02783864736557007, 0.07631838321685791, 0.4166680453377057, 1791403397765603334, 
-0.019074320793151855, -0.029333949089050293, 0.4376691645668148, 1791403397795609942, 
-0.0489005446434021, -0.10829341411590576, 0.43432361470060565, 1791403397825632912, 
0.06690961122512817, -0.066497802734375, 0.4249629763917495, 1791403397855614883, 
0.011217951774597168, -0.03144866228103638, 0.40120502234036703, 1791403397885688744, 
0.09121078252792358, -0.006329596042633057, 0.36917093011756275, 1791403397917415671, 
0.0184018611907959, 0.028917253017425537, 0.3837474272096525, 1791403397948055115, 
-0.0033319592475891113, 0.1311415433883667, 0.4381141905515715, 1791403397975612389, 
0.024981021881103516, 0.020006775856018066, 0.4160847705526787, 1791403398005634173, 
-0.19603490829467773, -0.1113365888595581, 0.4443736574572908, 1791403398035662214, 
0.026752829551696777, -0.14147943258285522, 0.43214054582080264, 1791403398065655597, 
0.054836928844451904, -0.04724383354187012, 0.4092906696064624, 1791403398095755284, 
0.0019375085830688477, 0.07973814010620117, 0.38922542060606513, 1791403398125770702, 
0.05260747671127319, -0.007569789886474609, 0.3841899315468557, 1791403398157046153, 
0.08884662389755249, 0.11058109998703003, 0.3855721421482302, 1791403398187948688, 
-0.0720146894454956, 0.008354485034942627, 0.44461478808881505, 1791403398215739175, 
0.12260955572128296, -0.13265937566757202, 0.39549315067924873, 1791403398245700440, 
-0.018290460109710693, -0.20684289932250977, 0.3738577024475089, 1791403398275740015, 
0.11387574672698975, 0.08862006664276123, 0.3463430665486821, 1791403398305765426, 
0.03451758623123169, 0.2221875786781311, 0.34589373289958386, 1791403398336022593, 
-0.04181021451950073, 0.07150846719741821, 0.3819819376449088, 1791403398365837679, 
-0.14474427700042725, -0.1173630952835083, 0.41085580075348116, 1791403398397223294, 
-0.011677384376525879, -0.0756826400756836, 0.4033117246899525, 1791403398429222134, 
-0.02139204740524292, -0.010833442211151123, 0.4435516725341115, 1791403398455822893, 
0.1552138328552246, -0.025214195251464844, 0.3657843109308827, 1791403398485786936, 
-0.1661929488182068, -0.012304246425628662, 0.39020090524517104, 1791403398515866306, 
0.19913381338119507, -0.01420450210571289, 0.4014401774613568, 1791403398545841178, 
-0.128595769405365, 0.09265738725662231, 0.38838404924488373, 1791403398575846986, 
0.01821458339691162, 0.005423605442047119, 0.3988075993616345, 1791403398605956363, 
-0.0816878080368042, -0.05641794204711914, 0.3951085006174423, 1791403398636997676, 
0.143235445022583, -0.09474289417266846, 0.37450984229272266, 1791403398669207562, 
-0.1022990345954895, 0.14904993772506714, 0.4418816656230892, 1791403398696034152, 
-0.20256328582763672, 0.054996490478515625, 0.42273835947292643, 1791403398725907009, 
0.049707114696502686, 0.009174942970275879, 0.3711817900569114, 1791403398749681855, 
-0.017214059829711914, -0.014357566833496094, 0.4781976221913619, 1791403398785935790, 
0.012757539749145508, -0.005114197731018066, 0.4050290598709754, 1791403398815976721, 
-0.006395697593688965, -0.12215274572372437, 0.3968542834628726, 1791403398845943509, 
-0.04664522409439087, -0.05791240930557251, 0.38423074399642204, 1791403398876430830, 
0.07581108808517456, 0.06787502765655518, 0.34784140562743276, 1791403398909260541, 
-0.035823166370391846, 0.06904608011245728, 0.4294068079125831, 1791403398935984334, 
0.1974906325340271, 0.12559276819229126, 0.39511521736170946, 1791403398965994625, 
-0.2524567246437073, -0.14408636093139648, 0.4109645652575537, 1791403398996268756, 
-0.10397642850875854, -0.15499085187911987, 0.42242362837714165, 1791403399026035170, 
0.09071379899978638, 0.01936793327331543, 0.4052185569735278, 1791403399056202287, 
0.1351204514503479, 0.07532346248626709, 0.4013353017539833, 1791403399086153068, 
-0.05723303556442261, -0.030496418476104736, 0.40177770211211405, 1791403399117292572, 
-0.048381924629211426, -0.02839958667755127, 0.4124357984390357, 1791403399148983259, 
-0.07731205224990845, -0.08426916599273682, 0.4742711373093615, 1791403399176069209, 
0.05099213123321533, -0.05450195074081421, 0.4053210815493649, 1791403399206083423, 
0.05499696731567383, -0.06156688928604126, 0.33360265706351916, 1791403399229362166, 
0.10267138481140137, 0.04066675901412964, 0.4110664773775782, 1791403399266074332, 
0.021367311477661133, -0.02079564332962036, 0.37075211180012285, 1791403399296088202, 
-0.18207108974456787, 0.12052249908447266, 0.3642275936659072, 1791403399326158928, 
0.16767650842666626, -0.07846444845199585, 0.39145744198956806, 1791403399357006624, 
-0.18716973066329956, 0.05291169881820679, 0.38597042524750147, 1791403399388498993, 
0.169014573097229, -0.032808661460876465, 0.4469404047522019, 1791403399426130984, 
-0.17813873291015625, 0.0033925771713256836, 0.40420237209383447, 1791403399456202566, 
0.051636338233947754, -0.07016706466674805, 0.41662927276740425, 1791403399486194109, 
-0.07206135988235474, 0.04698669910430908, 0.40767268331605466, 1791403399516454759, 
0.12279069423675537, -0.010062158107757568, 0.3724627064506461, 1791403399549060614, 
-0.0882195234298706, -0.14794325828552246, 0.43218709839254904, 1791403399576310493, 
0.12229961156845093, 0.013683319091796875, 0.3697046852422333, 1791403399606311051, 
-0.04633593559265137, -0.007005453109741211, 0.38063200723678536, 1791403399636273884, 
-0.08938688039779663, 0.13018161058425903, 0.3735158424420537, 1791403399666294214, 
0.06914448738098145, -0.0549015998840332, 0.41060668455197225, 1791403399696326247, 
-0.206994891166687, -0.050812721252441406, 0.41303292828013766, 1791403399726348038, 
0.08137774467468262, -0.13753420114517212, 0.39734485493588173, 1791403399757326396, 
-0.14812320470809937, 0.019087493419647217, 0.34900486685728005, 1791403399789607086, 
0.06761616468429565, 0.17397546768188477, 0.4368467825019576, 1791403399816492195, 
-0.05789560079574585, -0.094451904296875, 0.42375773301793956, 1791403399846669421, 
0.01179361343383789, -0.08253055810928345, 0.4448381402076218, 1791403399876529564, 
-0.05538994073867798, -0.029213786125183105, 0.45151511669672467, 1791403399905441725, 
0.11507517099380493, -0.05837291479110718, 0.39628616109700937, 1791403399936679751, 
-0.03489762544631958, -0.102794349193573, 0.38971913940060976, 1791403399966493445, 
0.22548019886016846, 0.029388129711151123, 0.3732279572940102, 1791403399997353137, 
-0.14964938163757324, 0.15616780519485474, 0.36177687482925236, 1791403400029670881, 
-0.09099119901657104, 0.07744640111923218, 0.47495660680468904, 1791403400056651606, 
-0.10681062936782837, -0.15485107898712158, 0.4757427265952332, 1791403400086552862, 
0.03215736150741577, -0.11458688974380493, 0.4526995225261072, 1791403400116565855, 
0.12931197881698608, 0.09584993124008179, 0.40154219747295566, 1791403400146556567, 
-0.006817519664764404, -0.042461097240448, 0.4250975680266108, 1791403400176577693, 
-0.0932687520980835, 0.06134861707687378, 0.4420802736598018, 1791403400206634916, 
0.053673624992370605, -0.013859331607818604, 0.4513579425453391, 1791403400237266766, 
-0.07740521430969238, -0.027643978595733643, 0.4156858603419553, 1791403400269301501, 
0.22127902507781982, -0.03101944923400879, 0.4544516424400936, 1791403400296697750, 
-0.15066075325012207, -0.06652343273162842, 0.4174828351234155, 1791403400326665418, 
0.1756572723388672, 0.14520615339279175, 0.4244244049188494, 1791403400356770833, 
-0.05115842819213867, 0.06266254186630249, 0.45059867907241163, 1791403400386685843, 
-0.11979299783706665, -0.2337806224822998, 0.44864583964478655, 1791403400416707056, 
-0.10737144947052002, -0.11468124389648438, 0.42833886968143414, 1791403400446772391, 
0.10986876487731934, 0.07816857099533081, 0.4252609551968684, 1791403400477781086, 
-0.10018503665924072, 0.27595043182373047, 0.42810285246737934, 1791403400509070018, 
0.1449373960494995, -0.1507430076599121, 0.5168688251047164, 1791403400536836696, 
-0.4284840226173401, -0.2014005184173584, 0.4822526098499254, 1791403400566829460, 
0.19109821319580078, 0.03133285045623779, 0.4703835025279232, 1791403400596808811, 
-0.09245151281356812, 0.07880252599716187, 0.45864249697156795, 1791403400626848278, 
-0.025127410888671875, 0.11551660299301147, 0.4770160372323651, 1791403400656880012, 
0.02694636583328247, 0.021590709686279297, 0.4924074247073652, 1791403400687013101, 
0.17952978610992432, -0.08329880237579346, 0.4819547072621274, 1791403400717099595, 
0.05350816249847412, -0.09653395414352417, 0.40529811709234936, 1791403400749189795, 
0.18536007404327393, 0.032070279121398926, 0.43787687029665295, 1791403400776959075, 
-0.1602332592010498, 0.10515362024307251, 0.42726343263796535, 1791403400806981220, 
-0.10719949007034302, -0.04006379842758179, 0.46879909088952576, 1791403400836920752, 
0.22806769609451294, 0.008851945400238037, 0.4791762619343904, 1791403400867007248, 
-0.17474901676177979, 0.024522721767425537, 0.506568508864095, 1791403400897000433, 
0.03184586763381958, 0.020291268825531006, 0.510005088055532, 1791403400927063003, 
-0.07727009057998657, 0.03942668437957764, 0.5045804549031218, 1791403400957151336, 
0.1610565185546875, -0.21230286359786987, 0.4486223979378279, 1791403400989737070, 
-0.19350117444992065, -0.13881993293762207, 0.5362553984449568, 1791403401017135594, 
0.12954294681549072, 0.08228170871734619, 0.488368046661972, 1791403401047111501, 
0.05714637041091919, 0.2507935166358948, 0.5111538639639552, 1791403401077084059, 
0.06721538305282593, -0.15315485000610352, 0.5204976279032323, 1791403401107203791, 
-0.2200964093208313, -0.2699108123779297, 0.5015510394997184, 1791403401137103085, 
0.18942594528198242, 0.10321176052093506, 0.4681233770033943, 1791403401167160218, 
0.0804261565208435, 0.1483723521232605, 0.47215057045953657, 1791403401197941533, 
-0.14573568105697632, 0.057834625244140625, 0.4857783725710092, 1791403401229174433, 
-0.22063326835632324, -0.19523143768310547, 0.5174989969185694, 1791403401259243845, 
0.24682074785232544, -0.055235326290130615, 0.5564030128707321, 1791403401287238393, 
-0.16884052753448486, -0.03803890943527222, 0.5204954375629953, 1791403401317215097, 
-0.09589380025863647, 0.29525184631347656, 0.45531315499520886, 1791403401339366845, 
0.06240427494049072, -0.050736069679260254, 0.5740963008771666, 1791403401367297303, 
-0.11278373003005981, -0.29801493883132935, 0.53883729034346, 1791403401397258020, 
-0.08374321460723877, 0.019419848918914795, 0.5211049328404357, 1791403401427342221, 
0.06884539127349854, 0.23640209436416626, 0.5248974915062312, 1791403401457280469, 
0.01984506845474243, 0.08664298057556152, 0.5318831188470997, 1791403401487354472, 
-0.02727377414703369, -0.4365825653076172, 0.531666779488358, 1791403401516431358, 
0.16457784175872803, -0.07385671138763428, 0.460215265337192, 1791403401549166633, 
-0.12137347459793091, 0.33811330795288086, 0.5132723922982843, 1791403401579691357, 
-0.2005302906036377, 0.07977688312530518, 0.6193890264834014, 1791403401606488821, 
-0.03241896629333496, -0.3349543809890747, 0.5260379565840447, 1791403401637371395, 
0.1403598189353943, -0.12389618158340454, 0.5636014680938769, 1791403401666444348, 
-0.17901664972305298, 0.34796518087387085, 0.5369734070671228, 1791403401697412933, 
-0.012349724769592285, 0.029635310173034668, 0.5918233977105621, 1791403401725457941, 
0.1190217137336731, -0.3663157820701599, 0.5112068538499103, 1791403401757789063, 
-0.11921679973602295, -0.002128005027770996, 0.5338504245725411, 1791403401789213116, 
0.08033895492553711, 0.24798041582107544, 0.5363631028106839, 1791403401820711112, 
-0.00335007905960083, 0.07015562057495117, 0.6155847486592099, 1791403401847569069, 
0.04257875680923462, -0.31465309858322144, 0.5485560546473163, 1791403401877533641, 
-0.11028945446014404, 0.10380339622497559, 0.5566537375610592, 1791403401907582294, 
0.09354186058044434, 0.42169415950775146, 0.5449323256114512, 1791403401937580727, 
-0.08399754762649536, -0.18806064128875732, 0.5434965638501467, 1791403401967618642, 
-0.13407999277114868, -0.28204643726348877, 0.5715673032159524, 1791403401997653962, 
-0.057472050189971924, 0.2426883578300476, 0.5489365417234886, 1791403402029683890, 
0.16797620058059692, 0.3126521706581116, 0.5818148110016866, 1791403402060022793, 
-0.10866034030914307, -0.4108211398124695, 0.6669222598741057, 1791403402087837089, 
-0.1402442455291748, -0.09325093030929565, 0.6422392375175716, 1791403402117658278, 
-0.12923836708068848, 0.3685346245765686, 0.6312740258060852, 1791403402147727786, 
0.0027785301208496094, 0.02042675018310547, 0.59588286786768, 1791403402177732358, 
0.09474289417266846, -0.4332526922225952, 0.5959001190417038, 1791403402207773233, 
-0.36890387535095215, 0.10651421546936035, 0.6007955718098664, 1791403402237818950, 
-0.00895458459854126, 0.2775115370750427, 0.5470532823609896, 1791403402269658285, 
-0.0012386441230773926, -0.2749856114387512, 0.5303037406995341, 1791403402301186579, 
-0.2081596851348877, -0.14389914274215698, 0.6449999849922669, 1791403402327926852, 
0.13645821809768677, 0.3521096110343933, 0.6089233520989392, 1791403402357825617, 
0.13747215270996094, 0.22048991918563843, 0.5220848304582624, 1791403402381219996, 
0.13063615560531616, -0.32390183210372925, 0.6743986555624968, 1791403402408125133, 
-0.17402112483978271, 0.17822831869125366, 0.6471084863667304, 1791403402437936405, 
-0.10321980714797974, 0.3212013840675354, 0.5784506167323714, 1791403402460744481, 
0.07133370637893677, -0.16125351190567017, 0.7138744066334086, 1791403402487944683, 
0.013316988945007324, -0.35733741521835327, 0.6043320573488341, 1791403402517882753, 
0.001402735710144043, 0.1770579218864441, 0.6071720644749556, 1791403402547925224, 
-0.24030804634094238, 0.17230451107025146, 0.6178221051876168, 1791403402577955772, 
0.29372650384902954, -0.28667402267456055, 0.61006157860325, 1791403402607993096, 
-0.08466875553131104, -0.09379410743713379, 0.5916516126691329, 1791403402638069345, 
0.027639567852020264, 0.23865234851837158, 0.5656187217545396, 1791403402668525246, 
-0.12453758716583252, -0.027297556400299072, 0.542316821804352, 1791403402700454383, 
0.32313114404678345, -0.22931909561157227, 0.6509310724434159, 1791403402728143243, 
-0.2439737319946289, 0.19310861825942993, 0.6167555521055333, 1791403402758015553, 
-0.11081057786941528, 0.07883095741271973, 0.5424149161049943, 1791403402781789626, 
-0.07939034700393677, -0.20936822891235352, 0.724912067140767, 1791403402808113233, 
0.05689281225204468, 0.00964975357055664, 0.6398645501313716, 1791403402838068855, 
0.09664386510848999, 0.2192324995994568, 0.6480711524170139, 1791403402868106338, 
-0.14416766166687012, -0.15066975355148315, 0.6225699746417919, 1791403402898082100, 
-0.04662245512008667, -0.1699482798576355, 0.6065750430195972, 1791403402928128696, 
0.16801047325134277, 0.14708787202835083, 0.6247198955280522, 1791403402958488848, 
-0.09461104869842529, -0.07907605171203613, 0.5815572000311281, 1791403402989598807, 
0.08321309089660645, -0.19153618812561035, 0.5438673934069657, 1791403403021191262, 
-0.13518625497817993, 0.146406352519989, 0.6972952966841789, 1791403403047505858, 
0.012480318546295166, 0.1254211664199829, 0.6180139664559308, 1791403403078322939, 
0.11483210325241089, -0.1078653335571289, 0.6157074507860779, 1791403403108277444, 
0.04871773719787598, -0.036906898021698, 0.639378190765785, 1791403403138298534, 
-0.27168506383895874, 0.03556203842163086, 0.6494433950649595, 1791403403168296271, 
0.2734547257423401, -0.19960808753967285, 0.6546524242189002, 1791403403198315521, 
-0.2484050989151001, 0.0699034333229065, 0.5952274702094392, 1791403403229659945, 
-0.10986018180847168, 0.1331743597984314, 0.6031905146971321, 1791403403261519858, 
0.0744485855102539, -0.12441980838775635, 0.6953664533752415, 1791403403288486317, 
0.05453377962112427, -0.04322004318237305, 0.6140568109299263, 1791403403318339906, 
-0.10914778709411621, 0.23834115266799927, 0.6129846223992033, 1791403403348368854, 
0.06389576196670532, -0.15632712841033936, 0.6248295870521571, 1791403403378373144, 
0.04064148664474487, -0.13023978471755981, 0.625478837943438, 1791403403408398606, 
0.12930655479431152, 0.1629030704498291, 0.6617758524838236, 1791403403437459627, 
-0.21786677837371826, -0.05229973793029785, 0.6052063379805973, 1791403403469244201, 
0.10095292329788208, -0.20698201656341553, 0.6000992403467476, 1791403403501300526, 
-0.1354389786720276, 0.1763063669204712, 0.7095184503066391, 1791403403528653713, 
0.1382676362991333, -0.06254023313522339, 0.6689770708157086, 1791403403558516193, 
0.014341413974761963, -0.26499831676483154, 0.6402381510322147, 1791403403588553350, 
-0.10603255033493042, 0.11182010173797607, 0.6691081150659188, 1791403403617567428, 
-0.18486779928207397, 0.13717150688171387, 0.6313556257229656, 1791403403648576156, 
0.2575877904891968, -0.1603969931602478, 0.6383974777255581, 1791403403677590578, 
-0.02987116575241089, -0.07572448253631592, 0.5893668944090132, 1791403403708777693, 
-0.1548822522163391, 0.17420560121536255, 0.5803273283166704, 1791403403741697842, 
-0.12624263763427734, -0.03641676902770996, 0.6988431665385015, 1791403403768675487, 
0.1413472294807434, -0.09637510776519775, 0.6309151309681839, 1791403403798592420, 
-0.3265591263771057, 0.1610339879989624, 0.6417000610776091, 1791403403828663170, 
-0.15796613693237305, 0.028574883937835693, 0.6373384810366567, 1791403403858650107, 
0.27897459268569946, -0.14028340578079224, 0.6430015910532866, 1791403403888694693, 
-0.04219341278076172, 0.2210976481437683, 0.654963897478022, 1791403403918763575, 
0.021699726581573486, -0.09228599071502686, 0.6217507945415679, 1791403403949284062, 
-0.13584262132644653, -0.29291707277297974, 0.6000975747343621, 1791403403981533784, 
-0.06381553411483765, 0.2212410569190979, 0.7337292558278555, 1791403404008825847, 
0.08298909664154053, 0.06710261106491089, 0.658023014681214, 1791403404038795365, 
0.24885785579681396, -0.4029255509376526, 0.5772040507092556, 1791403404068793842, 
0.10127103328704834, -0.29446887969970703, 0.45825139260594805, 1791403404098931542, 
-0.4527395963668823, 0.01202094554901123, 0.31500430160609866, 1791403404128986549, 
-0.18363076448440552, -0.2004426121711731, 0.27810234152970986, 1791403404159068544, 
0.20179051160812378, -0.07913702726364136, 0.26464523399204487, 1791403404189717882, 
0.021342694759368896, 0.20619207620620728, 0.25493806832474825, 1791403404221240336, 
0.09669911861419678, 0.23646223545074463, 0.364509358798036, 1791403404248966505, 
-0.09892600774765015, -0.058055996894836426, 0.3759147241420485, 1791403404278911862, 
-0.1395050287246704, -0.46004772186279297, 0.360682765069405, 1791403404309099514, 
0.06166791915893555, 0.011712074279785156, 0.3404521464113459, 1791403404338984355, 
-0.1477413773536682, 0.13955914974212646, 0.339145877889884, 1791403404368955358, 
0.007712244987487793, 0.07559502124786377, 0.3477335717246274, 1791403404399028337, 
-0.05359804630279541, -0.022386372089385986, 0.3474708128610872, 1791403404429321131, 
0.05304229259490967, -0.15891611576080322, 0.33355311932156, 1791403404461293841, 
-0.2794947028160095, 0.008348405361175537, 0.38075889026614046, 1791403404489108765, 
0.07820510864257812, 0.04125875234603882, 0.35826058165575125, 1791403404519069740, 
0.12638956308364868, 0.08987069129943848, 0.3528590780741525, 1791403404549067226, 
-0.09808051586151123, -0.19243943691253662, 0.3708197200985891, 1791403404579119357, 
-0.20335924625396729, -0.036202847957611084, 0.36178485507041297, 1791403404609126318, 
0.04695260524749756, 0.06270939111709595, 0.35691281773188177, 1791403404639216622, 
0.0035327672958374023, 0.011447608470916748, 0.3609707266827509, 1791403404669264242, 
-0.14677101373672485, 0.0493890643119812, 0.3316788265346109, 1791403404701738512, 
0.04081583023071289, -0.10946857929229736, 0.3995632387470321, 1791403404729267642, 
-0.14893019199371338, 0.0034879446029663086, 0.35410344851186437, 1791403404759280899, 
-0.12146180868148804, 0.02253282070159912, 0.3572806043858369, 1791403404789191375, 
0.14012128114700317, 0.12698352336883545, 0.35523190560321033, 1791403404819243690, 
-0.06665307283401489, -0.061614930629730225, 0.35130252875152773, 1791403404849237615, 
-0.15530705451965332, -0.26762861013412476, 0.3522820972004839, 1791403404879299724, 
-0.07866525650024414, 0.08604925870895386, 0.36038568401131144, 1791403404909601381, 
0.38861167430877686, 0.2575468420982361, 0.34701410075083233, 1791403404941591924, 
-0.17159408330917358, 0.005240976810455322, 0.38358265540063424, 1791403404969575939, 
-0.20341336727142334, -0.4312937259674072, 0.3671219738719606, 1791403404999350153, 
-0.023573458194732666, 0.03468531370162964, 0.3553082042095971, 1791403405029320829, 
0.19633930921554565, 0.31744062900543213, 0.36071711680027413, 1791403405059344392, 
0.21544384956359863, 0.07733386754989624, 0.3631086525254208, 1791403405089346271, 
-0.31929653882980347, -0.38835465908050537, 0.358798590027834, 1791403405119365994, 
0.05051499605178833, -0.09025770425796509, 0.35779040018970504, 1791403405149783631, 
0.07832461595535278, 0.17206424474716187, 0.3572023647934166, 1791403405180450608, 
0.14486271142959595, 0.1357991099357605, 0.3579271680737736, 1791403405210449148, 
-0.053691983222961426, -0.01737898588180542, 0.37134797950927817, 1791403405239626769, 
0.00687938928604126, -0.12328070402145386, 0.3779483697539092, 1791403405268518883, 
0.026277661323547363, -0.022570252418518066, 0.34936673764556986, 1791403405299640169, 
-0.048838019371032715, 0.134893000125885, 0.36941458095701946, 1791403405329577007, 
0.1553889513015747, 0.13147419691085815, 0.37864180082150184, 1791403405359582654, 
-0.07170885801315308, 0.04426383972167969, 0.37658216482520845, 1791403405389611924, 
0.02109527587890625, -0.357094407081604, 0.36172541252713153, 1791403405421331598, 
-0.21540290117263794, 0.000125885009765625, 0.36602123476238574, 1791403405451863998, 
0.25264912843704224, 0.26300132274627686, 0.3966569115460559, 1791403405480160278, 
-0.05787038803100586, 0.01634746789932251, 0.36794169578033953, 1791403405509635841, 
-0.054128170013427734, -0.171381413936615, 0.3288743625188842, 1791403405531664287, 
-0.0662621259689331, 0.032536089420318604, 0.39047889377437645, 1791403405559684535, 
0.004726111888885498, 0.05390501022338867, 0.3866002703123421, 1791403405589677719, 
0.18703186511993408, 0.12174195051193237, 0.39039880098988344, 1791403405618697977, 
-0.10087805986404419, -0.15440744161605835, 0.35480245591515447, 1791403405649722897, 
-0.055461347103118896, -0.19061803817749023, 0.35724170780037295, 1791403405679858708, 
-0.20244860649108887, 0.07052457332611084, 0.37922261518665734, 1791403405709764335, 
0.20647895336151123, 0.23843133449554443, 0.3641734594006458, 1791403405741621819, 
-0.010038554668426514, 0.13840919733047485, 0.36236377992494023, 1791403405772594510, 
-0.03063511848449707, -0.3639276623725891, 0.4136706920477152, 1791403405799852822, 
-0.08448338508605957, 0.06723427772521973, 0.3835900965707218, 1791403405830046436, 
0.15959376096725464, 0.12186169624328613, 0.38624640440258007, 1791403405860041007, 
0.1995333433151245, 0.06308317184448242, 0.3858643942123455, 1791403405889868509, 
-0.05975461006164551, -0.23923754692077637, 0.38378539385880683, 1791403405919903303, 
-0.25741058588027954, -0.08783018589019775, 0.38303402241909007, 1791403405949899961, 
0.06149470806121826, 0.1526869535446167, 0.36822706589683657, 1791403405981784496, 
0.15593063831329346, 0.20134925842285156, 0.36502429629697014, 1791403406012618312, 
0.07927387952804565, -0.23576223850250244, 0.3987880201773842, 1791403406039935174, 
-0.12161010503768921, -0.23695939779281616, 0.38194449522263224, 1791403406070071639, 
-0.09648787975311279, 0.13287264108657837, 0.4076863232856544, 1791403406099991827, 
0.1271514892578125, 0.26467669010162354, 0.3837940147443193, 1791403406130107425, 
0.00920039415359497, -0.2019662857055664, 0.34815375603405774, 1791403406160157816, 
0.05211442708969116, -0.25011396408081055, 0.3677971845569466, 1791403406190053697, 
-0.2109236717224121, 0.08037352561950684, 0.3808814317106141, 1791403406221394249, 
0.11936825513839722, 0.27242952585220337, 0.37477146696920477, 1791403406252704676, 
0.18120300769805908, 0.02961200475692749, 0.39787465860364973, 1791403406280083418, 
0.13559764623641968, -0.42535310983657837, 0.3718148621105061, 1791403406310167722, 
-0.26217007637023926, 0.03657174110412598, 0.39762705530288, 1791403406340108640, 
0.03370290994644165, 0.31083953380584717, 0.41425069435213535, 1791403406370130947, 
0.21942609548568726, 0.14530646800994873, 0.38897982316544777, 1791403406400202667, 
0.0008854269981384277, -0.4653927683830261, 0.3712463544952157, 1791403406430218303, 
-0.3448420763015747, -0.18402987718582153, 0.35459237591849746, 1791403406461578980, 
0.10127139091491699, 0.3828447461128235, 0.35055331659740024, 1791403406493770614, 
0.19564074277877808, 0.26787614822387695, 0.4210118790450668, 1791403406520263317, 
-0.0388340950012207, -0.437039315700531, 0.36158578217162374, 1791403406550978088, 
-0.13488757610321045, -0.2710230350494385, 0.37788315029217856, 1791403406580975115, 
-0.1352117657661438, 0.3844614028930664, 0.3877159669824688, 1791403406611063551, 
0.18299466371536255, 0.24981653690338135, 0.3966666108218985, 1791403406640981857, 
0.010694622993469238, -0.3464384078979492, 0.3821700993348745, 1791403406671072005, 
0.0649796724319458, -0.3497154712677002, 0.3900686085376806, 1791403406701414618, 
-0.21254730224609375, 0.2567492723464966, 0.38664549399604914, 1791403406732715264, 
0.14611387252807617, 0.38064950704574585, 0.4211993619467627, 1791403406760954471, 
-0.025022685527801514, -0.1264815330505371, 0.3835264569663567, 1791403406790995262, 
0.19382447004318237, -0.38360100984573364, 0.4032340010141562, 1791403406820968675, 
-0.37857431173324585, 0.08522886037826538, 0.40126449568275796, 1791403406851008846, 
0.11638587713241577, 0.20064997673034668, 0.4125579500513684, 1791403406881065700, 
-0.18932729959487915, -0.05847388505935669, 0.38038492650956157, 1791403406911065019, 
0.3468649387359619, -0.29016995429992676, 0.36691605319998977, 1791403406941649096, 
-0.32131141424179077, 0.04831928014755249, 0.3596639890389213, 1791403406973599867, 
0.04161715507507324, 0.26887351274490356, 0.42965547247406816, 1791403407001044175, 
0.048651814460754395, 0.07443392276763916, 0.3914620747782823, 1791403407031114691, 
0.20868033170700073, -0.36699849367141724, 0.40261279889285667, 1791403407061090444, 
-0.2446502447128296, -0.07089060544967651, 0.4181503833098074, 1791403407090555677, 
0.1231236457824707, 0.2970544099807739, 0.42254401379975376, 1791403407120582491, 
-0.10236132144927979, 0.06540894508361816, 0.4185975264919167, 1791403407150711248, 
-0.019372403621673584, -0.2433995008468628, 0.37234922641037815, 1791403407182209861, 
-0.10168248414993286, -0.11092567443847656, 0.374227891164581, 1791403407213667232, 
0.08993220329284668, 0.20789557695388794, 0.4553510247135824, 1791403407240722909, 
0.2057761549949646, 0.11878877878189087, 0.4172363311522593, 1791403407270595687, 
-0.11576688289642334, -0.2984009385108948, 0.39620891560089655, 1791403407300601527, 
-0.2644006013870239, -0.10648477077484131, 0.39507409627611584, 1791403407330692795, 
0.11912107467651367, 0.19001758098602295, 0.4127930263545828, 1791403407360708114, 
0.2123226523399353, 0.1453351378440857, 0.406270879549138, 1791403407391006445, 
-0.019874095916748047, -0.3174370527267456, 0.3959585994281411, 1791403407420438210, 
-0.23304510116577148, -0.13013023138046265, 0.35412317038135915, 1791403407453770715, 
0.1057443618774414, 0.2568589448928833, 0.49026089699338726, 1791403407479866409, 
0.1352718472480774, 0.08335918188095093, 0.4191584399409929, 1791403407510857825, 
0.043552279472351074, -0.4678785800933838, 0.3985046571546404, 1791403407540916341, 
-0.18838536739349365, 0.07554930448532104, 0.4100177199815418, 1791403407570808448, 
0.02128058671951294, 0.5087881088256836, 0.43891940461072826, 1791403407600770580, 
-0.064006507396698, -0.07135546207427979, 0.41675858460799, 1791403407630866234, 
0.1093294620513916, -0.4658593535423279, 0.37587016259755507, 1791403407661475174, 
-0.11371928453445435, -0.0291823148727417, 0.3625749822184333, 1791403407694178493, 
-0.05881613492965698, 0.3760574460029602, 0.4718705868324349, 1791403407720874469, 
-0.00012367963790893555, 0.14492177963256836, 0.4006942308867552, 1791403407750919068, 
0.11068278551101685, -0.3189477324485779, 0.3887784141768073, 1791403407780935534, 
-0.13086146116256714, -0.0622066855430603, 0.40078899542306823, 1791403407810953389, 
0.021111905574798584, 0.1555156111717224, 0.422455957628383, 1791403407840959703, 
0.05434620380401611, -0.015571355819702148, 0.43121400774121255, 1791403407871046542, 
-0.12024140357971191, -0.19832199811935425, 0.39225893703427067, 1791403407901611050, 
-0.09755605459213257, 0.03047424554824829, 0.3814319769143932, 1791403407933700832, 
0.16458696126937866, 0.16779249906539917, 0.4814503744372583, 1791403407961136179, 
0.09579819440841675, -0.03268444538116455, 0.43219818000654975, 1791403407991044471, 
-0.06449413299560547, -0.30777454376220703, 0.4090248178604604, 1791403408021059404, 
-0.34115153551101685, 0.0838850736618042, 0.41695531593479046, 1791403408051078312, 
0.20005548000335693, 0.2509225606918335, 0.4427146074652112, 1791403408081131874, 
-0.08673381805419922, -0.09613639116287231, 0.4152814549906978, 1791403408111117871, 
0.004348933696746826, -0.33833742141723633, 0.371912411933057, 1791403408141894726, 
-0.11166077852249146, 0.13546037673950195, 0.38789113920692553, 1791403408173755795, 
0.13121354579925537, 0.416134774684906, 0.4764209744270379, 1791403408201341186, 
0.040266573429107666, -0.1148574948310852, 0.41596788619362796, 1791403408231203184, 
0.040146052837371826, -0.39468181133270264, 0.39750583159527964, 1791403408261232093, 
-0.2860012650489807, 0.033018410205841064, 0.4272870767173145, 1791403408291235543, 
0.06354308128356934, 0.38203173875808716, 0.4421202829536826, 1791403408321279760, 
0.08442264795303345, -0.04116940498352051, 0.4182644677555564, 1791403408351341844, 
-0.16149932146072388, -0.1360146403312683, 0.4091585763135186, 1791403408381621232, 
-0.08723413944244385, 0.3200336694717407, 0.4102633757465278, 1791403408414285417, 
0.022604942321777344, 0.08651494979858398, 0.5127510158826097, 1791403408441362704, 
0.12114936113357544, -0.37560731172561646, 0.42965889189545126, 1791403408471334680, 
-0.02925240993499756, -0.05847698450088501, 0.4155518858550656, 1791403408501341421, 
-0.0925743579864502, 0.1903253197669983, 0.43395461818085085, 1791403408531558582, 
0.05594658851623535, -0.03995227813720703, 0.4261071581593683, 1791403408561380809, 
0.1238742470741272, -0.23025774955749512, 0.40762548575687774, 1791403408591369415, 
-0.14838331937789917, 0.13629281520843506, 0.425922686272374, 1791403408621559824, 
-0.020707547664642334, 0.2894103527069092, 0.40595829814958284, 1791403408654241331, 
0.014977753162384033, -0.2280139923095703, 0.48317024147627374, 1791403408690446039, 
-0.19141411781311035, -0.19669502973556519, 0.40493438469322574, 1791403408721477034, 
-0.013966500759124756, 0.12540769577026367, 0.446417126839405, 1791403408751505863, 
0.20535212755203247, 0.1733449101448059, 0.44056119694517987, 1791403408782139902, 
0.006274878978729248, -0.3447690010070801, 0.39744233142601826, 1791403408813833839, 
-0.3346409201622009, -0.19644451141357422, 0.42791109013042117, 1791403408841568024, 
0.05229371786117554, 0.4482348561286926, 0.42461605498012117, 1791403408871535033, 
0.2921888828277588, 0.06439030170440674, 0.43964771922735274, 1791403408901577666, 
-0.009403347969055176, -0.5313756465911865, 0.4200346910375579, 1791403408931539444, 
-0.11702215671539307, -0.16838574409484863, 0.42232563524659866, 1791403408961596544, 
-0.0692368745803833, 0.3395969867706299, 0.4307230025865317, 1791403408991592161, 
0.0847318172454834, 0.08190655708312988, 0.41637589356917276, 1791403409021612982, 
0.0831877589225769, -0.31198132038116455, 0.39329664331986525, 1791403409053896296, 
-0.12589901685714722, -0.07978028059005737, 0.449207834718058, 1791403409083709091, 
-0.03295421600341797, 0.1826491355895996, 0.4825814178289132, 1791403409111659341, 
-0.018156111240386963, -0.049853622913360596, 0.4374250675296343, 1791403409141732191, 
0.17936944961547852, -0.28156280517578125, 0.4345175970147944, 1791403409171703349, 
-0.373604416847229, 0.10485285520553589, 0.4313280337522456, 1791403409201808706, 
0.10242372751235962, 0.1593705415725708, 0.41561227391385713, 1791403409232373864, 
-0.06209760904312134, -0.3230639100074768, 0.4207545159757096, 1791403409261892732, 
-0.04315918684005737, 0.02137172222137451, 0.38766488314081987, 1791403409294303404, 
0.09042155742645264, 0.28814446926116943, 0.47982241383145363, 1791403409321865893, 
0.023283541202545166, -0.10367196798324585, 0.44085219700290856, 1791403409351838011, 
0.08154511451721191, -0.39217162132263184, 0.43899903063168416, 1791403409381814873, 
-0.26532453298568726, 0.09565353393554688, 0.4531565462254447, 1791403409411820950, 
0.011309802532196045, 0.4041033387184143, 0.47296836896687766, 1791403409440838710, 
0.06997990608215332, -0.10392940044403076, 0.4291593469491552, 1791403409471901017, 
-0.09651654958724976, -0.26213014125823975, 0.4211674326940347, 1791403409501930669, 
-0.1350620985031128, 0.09767448902130127, 0.4145688740358169, 1791403409533961594, 
0.200455904006958, 0.17411482334136963, 0.4736032194940484, 1791403409563458633, 
0.11790603399276733, -0.2847248315811157, 0.4640899027790963, 1791403409592066828, 
-0.2830216884613037, -0.21578645706176758, 0.41739753845315253, 1791403409621977366, 
-0.14499366283416748, 0.31042808294296265, 0.4410925555356678, 1791403409651983327, 
0.06321245431900024, 0.1048438549041748, 0.4531562096926979, 1791403409682034250, 
-0.004889845848083496, -0.1939566731452942, 0.41846857999990167, 1791403409712019745, 
0.1383708119392395, -0.14264452457427979, 0.4381323403850047, 1791403409742251233, 
0.029057085514068604, 0.13669955730438232, 0.447130017005151, 1791403409773707977, 
-0.07659262418746948, -0.15008443593978882, 0.436625065617112, 1791403409805176503, 
0.003346085548400879, -0.19444936513900757, 0.4800343075450142, 1791403409832147594, 
-0.12273794412612915, 0.13477230072021484, 0.4602050198701214, 1791403409862099259, 
-0.026925265789031982, 0.16664588451385498, 0.46445738267361236, 1791403409892107395, 
-0.07843208312988281, -0.04973435401916504, 0.4368586139836534, 1791403409922127360, 
0.21625936031341553, -0.20251727104187012, 0.4464850015166871, 1791403409952154999, 
-0.25697624683380127, 0.16307544708251953, 0.4588396092885936, 1791403409982240377, 
0.26015979051589966, -0.03320986032485962, 0.4376041195391196, 1791403410013715038, 
-0.15985029935836792, -0.3075881004333496, 0.407126290695817, 1791403410045922254, 
-0.12184643745422363, 0.06149965524673462, 0.5159947648930243, 1791403410072376399, 
0.09233397245407104, 0.2419300079345703, 0.48139265322616165, 1791403410102323901, 
0.07361793518066406, -0.15719127655029297, 0.45738134144903536, 1791403410132259650, 
-0.19413799047470093, -0.19808954000473022, 0.4373905454349408, 1791403410162297688, 
-0.07913446426391602, 0.14650768041610718, 0.45881466552302885, 1791403410192292502, 
0.09957265853881836, 0.029716551303863525, 0.45831367709002974, 1791403410222330199, 
-0.014119446277618408, -0.21288520097732544, 0.40429292441122827, 1791403410254309273, 
-0.02458012104034424, -0.008466720581054688, 0.42548623050729645, 1791403410285733617, 
0.05411684513092041, 0.17832964658737183, 0.5318747885447938, 1791403410312383253, 
0.1926558017730713, -0.18627411127090454, 0.45838540224470153, 1791403410342369152, 
0.3134540319442749, -0.04157954454421997, 0.40096575885151453, 1791403410365669128, 
1.041406273841858, 0.3041146993637085, 0.6634020592185563, 1791403410402415684, 
-0.15766876935958862, 0.23554688692092896, 0.6527164098104714, 1791403410431472175, 
0.16749310493469238, -0.40878361463546753, 0.6312141699683225, 1791403410462480286, 
-0.28935641050338745, -0.2602956295013428, 0.6037484597434726, 1791403410493777648, 
0.09870153665542603, 0.12156790494918823, 0.5533515778600677, 1791403410525679833, 
-0.38676971197128296, 0.03148013353347778, 0.6026030057808336, 1791403410552595901, 
0.21673345565795898, -0.21341967582702637, 0.5233157156381022, 1791403410582503218, 
-0.10423743724822998, 0.06975853443145752, 0.5092658362492566, 1791403410612536359, 
0.2995515465736389, 0.14166146516799927, 0.514655908234608, 1791403410642540689, 
-0.3357658386230469, 0.1847267746925354, 0.5496882405955086, 1791403410672551472, 
0.06931453943252563, -0.2309439778327942, 0.5869746149354842, 1791403410702560421, 
0.03991365432739258, -0.21721088886260986, 0.5492466351816935, 1791403410733787152, 
-0.30803728103637695, 0.20182311534881592, 0.5186713681533588, 1791403410766302576, 
-0.06097513437271118, -0.0037859678268432617, 0.6182952105468015, 1791403410792684168, 
-0.04509282112121582, 0.2131953239440918, 0.5258476831180756, 1791403410822929879, 
0.07040446996688843, -0.10744208097457886, 0.5605768728971525, 1791403410852678463, 
0.11534625291824341, 0.04373425245285034, 0.6027932525070887, 1791403410882721118, 
0.13169199228286743, 0.07409131526947021, 0.5941742839877965, 1791403410913010133, 
0.30093997716903687, -0.0934252142906189, 0.6115661743088973, 1791403410941960066, 
-0.10315203666687012, -0.024236679077148438, 0.5296902967722982, 1791403410973779122, 
-0.13668864965438843, -0.060468852519989014, 0.5273064108833927, 1791403411005950689, 
-0.15253561735153198, 0.20668166875839233, 0.6270105517898285, 1791403411032823058, 
-0.19965887069702148, -0.12939244508743286, 0.5407768236991535, 1791403411062814456, 
0.09913647174835205, 0.0012760758399963379, 0.44293728679039324, 1791403411086643346, 
-0.12525582313537598, -0.04109162092208862, 0.6238909878416965, 1791403411112896289, 
0.19267338514328003, -0.04452639818191528, 0.5594735333899817, 1791403411142820458, 
-0.03354692459106445, 0.26040738821029663, 0.49975150374139493, 1791403411166090111, 
-0.22396641969680786, -0.13296324014663696, 0.6617737731703563, 1791403411192899920, 
-0.04253274202346802, -0.18017619848251343, 0.5735826392271357, 1791403411222849108, 
-0.5429131984710693, -0.09464782476425171, 0.5791893392689166, 1791403411252888792, 
0.3644205927848816, 0.026054739952087402, 0.5875509518631644, 1791403411282916089, 
-0.38655489683151245, 0.1759263277053833, 0.5936064370999349, 1791403411311942325, 
0.5397040843963623, 0.010173380374908447, 0.5352307745591449, 1791403411342982155, 
-0.15830641984939575, 0.19721609354019165, 0.5812997068695587, 1791403411372752863, 
0.19045519828796387, -0.20324242115020752, 0.5372675019006712, 1791403411405171079, 
-0.4231938123703003, 0.04749739170074463, 0.6250439317445916, 1791403411433088576, 
-0.12967580556869507, -0.05843013525009155, 0.593755830686691, 1791403411463004324, 
-0.16169047355651855, -0.10033506155014038, 0.5766430362137062, 1791403411493042352, 
-0.22674953937530518, 0.09423762559890747, 0.5932848539333725, 1791403411523019297, 
0.41823089122772217, 0.1452985405921936, 0.5957217633015423, 1791403411553059861, 
-0.18835359811782837, 0.1681513786315918, 0.6146619596503723, 1791403411583093144, 
0.005125820636749268, -0.02733713388442993, 0.591153426197939, 1791403411614023165, 
-0.2840611934661865, 0.27193939685821533, 0.565994098532552, 1791403411645744392, 
-0.12605589628219604, 0.0661008358001709, 0.6582594651328134, 1791403411673244647, 
-0.014030158519744873, -0.06293761730194092, 0.605653894300425, 1791403411703155651, 
-0.520082414150238, -0.14872419834136963, 0.5871429904105929, 1791403411733189279, 
0.3387882113456726, 0.14425021409988403, 0.5688815992588855, 1791403411763292900, 
-0.22256207466125488, -0.11910903453826904, 0.586210490668902, 1791403411793537814, 
0.18346714973449707, 0.1712172031402588, 0.5706282834837165, 1791403411823351481, 
-0.3972421884536743, 0.06417208909988403, 0.5765901816197795, 1791403411854333134, 
0.2798246741294861, 0.09307068586349487, 0.5903838552338732, 1791403411886005880, 
-0.24612998962402344, 0.26032084226608276, 0.6847064429948871, 1791403411913393209, 
0.20935118198394775, -0.30078524351119995, 0.6332522750511135, 1791403411943317754, 
-0.16124629974365234, -0.01278698444366455, 0.6020400116936717, 1791403411973326299, 
-0.2048768401145935, 0.14000743627548218, 0.5944702043774436, 1791403412003323207, 
0.056300222873687744, -0.019176185131072998, 0.5965710201639416, 1791403412033339718, 
-0.17269229888916016, 0.16475003957748413, 0.5854620362744202, 1791403412063379919, 
0.08177179098129272, -0.0013870000839233398, 0.5835516267531776, 1791403412094194805, 
-0.2684746980667114, 0.1218334436416626, 0.5831321819135731, 1791403412126380016, 
0.02368074655532837, 0.03241246938705444, 0.6889800182298612, 1791403412153421639, 
-0.17132562398910522, 0.19833749532699585, 0.6075123087944614, 1791403412182450794, 
-0.04946249723434448, -0.23371005058288574, 0.5662425049127069, 1791403412212465472, 
-0.12396663427352905, 0.12266826629638672, 0.564945347211869, 1791403412243484445, 
-0.04238814115524292, 0.0617600679397583, 0.610523983604939, 1791403412273476479, 
-0.19852226972579956, 0.0792304277420044, 0.606757358170796, 1791403412303550059, 
-0.023886680603027344, -0.02361994981765747, 0.605463564288673, 1791403412334189613, 
-0.07735323905944824, -0.10139644145965576, 0.5770476544485138, 1791403412366327314, 
-0.2810099124908447, -0.07200181484222412, 0.65015281868126, 1791403412393599455, 
0.25198012590408325, -0.0944681167602539, 0.5563938864173182, 1791403412423545273, 
-0.13855141401290894, 0.22422969341278076, 0.5518278083790896, 1791403412453564810, 
-0.12276685237884521, -0.03442782163619995, 0.5638772401290624, 1791403412483584469, 
0.07974839210510254, -0.056186139583587646, 0.550884699858968, 1791403412513619004, 
-0.3163655996322632, -0.0633389949798584, 0.5510864115941831, 1791403412543637790, 
0.20705944299697876, 0.08071613311767578, 0.5246286297641384, 1791403412573979529, 
-0.41548657417297363, 0.21589022874832153, 0.5092687085239063, 1791403412606119063, 
0.6359632611274719, -0.15920168161392212, 0.5679548949202817, 1791403412635775201, 
-0.4878390431404114, 0.2610214352607727, 0.5870721638635893, 1791403412663803010, 
0.126661479473114, -0.09550029039382935, 0.5551065197350438, 1791403412693741228, 
-0.2591288685798645, 0.14232468605041504, 0.5473318219431337, 1791403412723745036, 
0.02233123779296875, 0.00222170352935791, 0.5630189385411619, 1791403412753745199, 
-0.001081228256225586, -0.040640950202941895, 0.5551232964201298, 1791403412783798239, 
-0.28114211559295654, -0.008899688720703125, 0.5398227430430244, 1791403412814644617, 
-0.0015213489532470703, -0.11800718307495117, 0.4961578617147153, 1791403412847387932, 
-0.0821649432182312, 0.15829753875732422, 0.536496195631713, 1791403412875767794, 
-0.2306356430053711, -0.12632930278778076, 0.5198675463834119, 1791403412903833172, 
0.131747305393219, 0.022840142250061035, 0.4956038650185579, 1791403412933833516, 
-0.3043949007987976, 0.2736164927482605, 0.541418818320753, 1791403412963869359, 
0.13172078132629395, -0.09195035696029663, 0.550546724944295, 1791403412993880058, 
-0.24435871839523315, 0.11796140670776367, 0.5527031938484432, 1791403413023941602, 
-0.26467180252075195, -0.1032363772392273, 0.5525291566349332, 1791403413054010545, 
-0.2030848264694214, -0.07568496465682983, 0.4904941661942979, 1791403413086091657, 
-0.14609944820404053, 0.0819087028503418, 0.5239379912056679, 1791403413116135932, 
0.3601541519165039, -0.07277417182922363, 0.5326448503330479, 1791403413144049430, 
-0.3304266333580017, 0.18925565481185913, 0.48150225897919124, 1791403413173987821, 
0.20101940631866455, -0.03225642442703247, 0.5065566066554222, 1791403413204002067, 
-0.18491578102111816, -0.05802333354949951, 0.4836716056289683, 1791403413234025468, 
-0.009868264198303223, 0.2225431203842163, 0.5120480129935894, 1791403413263092985, 
-0.19486838579177856, 0.008488178253173828, 0.49880656714327243, 1791403413293038764, 
-0.19896632432937622, -0.04522264003753662, 0.4710481272937249, 1791403413325370725, 
-0.0955648422241211, -0.016870617866516113, 0.49915035447930844, 1791403413355947948, 
-0.14233320951461792, -0.17313909530639648, 0.5005935654907177, 1791403413394097677, 
-0.14771801233291626, 0.22591841220855713, 0.4787211693082101, 1791403413424138842, 
0.08345615863800049, 0.12002474069595337, 0.4620196765750498, 1791403413454645602, 
0.19444072246551514, -0.06016731262207031, 0.45438808834047095, 1791403413485834857, 
-0.35417550802230835, 0.0357966423034668, 0.4718107372806526, 1791403413517248754, 
0.13028943538665771, -0.3148816227912903, 0.5465726882574258, 1791403413544294798, 
-0.09101611375808716, 0.19717901945114136, 0.4928557776974981, 1791403413574247183, 
0.1779404878616333, -0.1133887767791748, 0.48797789098914535, 1791403413604303433, 
-0.20519930124282837, -0.09193593263626099, 0.4424747277301095, 1791403413634265682, 
-0.3031403422355652, 0.21397536993026733, 0.45432907986093063, 1791403413663438918, 
0.28090089559555054, -0.03858757019042969, 0.42212813015183737, 1791403413694365581, 
-0.329964280128479, 0.044439494609832764, 0.39301309174670573, 1791403413726426923, 
0.43143558502197266, -0.02868485450744629, 0.44411846253789894, 1791403413757749692, 
-0.2015511393547058, 0.013646066188812256, 0.5562770022267008, 1791403413784401906, 
0.1625480055809021, 0.16908878087997437, 0.502103114068824, 1791403413814334120, 
-0.38176649808883667, -0.003978312015533447, 0.4767277954938285, 1791403413844371765, 
0.12289893627166748, -0.2060108184814453, 0.47136317992351556, 1791403413874383065, 
-0.17843902111053467, 0.18862569332122803, 0.45734826463595174, 1791403413904428303, 
0.14239710569381714, -0.03044790029525757, 0.4667374328941934, 1791403413933469780, 
-0.035625159740448, -0.15163928270339966, 0.36350397713726523, 1791403413966555056, 
0.14382028579711914, 0.14649945497512817, 0.39310303218188586, 1791403413997760343, 
-0.17102766036987305, -0.0731622576713562, 0.4766162858385228, 1791403414024590343, 
-0.2451995611190796, -0.06559699773788452, 0.4363456359733893, 1791403414054496459, 
-0.05129706859588623, 0.2038390040397644, 0.38425071548773565, 1791403414078045616, 
-0.21985256671905518, 0.010959386825561523, 0.49336317224081866, 1791403414114532318, 
-0.031150460243225098, -0.21344411373138428, 0.4289506130964182, 1791403414144570154, 
0.028612792491912842, 0.208187997341156, 0.4580686824591644, 1791403414174578014, 
0.01636826992034912, -0.01640605926513672, 0.4259696270610856, 1791403414205999650, 
-0.11083835363388062, -0.040843963623046875, 0.3907373690326714, 1791403414238060661, 
-0.20843809843063354, 0.1609063744544983, 0.477090086894393, 1791403414264654832, 
0.1583436131477356, -0.04049515724182129, 0.42012231863912547, 1791403414294614945, 
0.0523378849029541, -0.0043027400970458984, 0.4003343393619081, 1791403414324666670, 
0.07976377010345459, 0.12048536539077759, 0.4126417853642098, 1791403414354769206, 
-0.04150128364562988, -0.1832539439201355, 0.4030006622963484, 1791403414384809856, 
-0.0001259446144104004, 0.03141981363296509, 0.40711267419810654, 1791403414414771030, 
-0.1561320424079895, 0.19310075044631958, 0.4050578524352772, 1791403414446147069, 
-0.18995308876037598, -0.019724607467651367, 0.3789022343109757, 1791403414478321953, 
-0.08573859930038452, 0.03719061613082886, 0.4718662300549126, 1791403414504792321, 
-0.0744280219078064, 0.13265419006347656, 0.44340137543068936, 1791403414534774709, 
-0.13196897506713867, 0.014431536197662354, 0.36437689576094745, 1791403414557809415, 
-0.18841880559921265, 0.05683368444442749, 0.4435232805960866, 1791403414594857473, 
0.02403581142425537, 0.11007457971572876, 0.44758375634787556, 1791403414624867775, 
0.07890307903289795, -0.05494225025177002, 0.43328533476310066, 1791403414654900153, 
0.012780249118804932, 0.049829840660095215, 0.3884419616094286, 1791403414685475558, 
-0.0061452388763427734, 0.059282660484313965, 0.3666045932051649, 1791403414717815253, 
0.00941920280456543, -0.2112368941307068, 0.4416039146937207, 1791403414744978659, 
0.029545128345489502, 0.0013321638107299805, 0.39669727380682446, 1791403414774921996, 
-0.13355529308319092, 0.31870120763778687, 0.3889465778062266, 1791403414804955463, 
0.09172999858856201, -0.14081937074661255, 0.3848735555655634, 1791403414834972196, 
-0.2288009524345398, -0.025928854942321777, 0.4069266521041611, 1791403414864985729, 
0.0790095329284668, 0.2137751579284668, 0.430458367993019, 1791403414895137006, 
0.07153719663619995, -0.0758398175239563, 0.403852138914957, 1791403414926379218, 
-0.06881523132324219, -0.08488845825195312, 0.3853539121137377, 1791403414957852386, 
-0.02203458547592163, 0.04578500986099243, 0.47144643828518085, 1791403414995042901, 
-0.26778852939605713, -0.06001746654510498, 0.42496713084242543, 1791403415025058291, 
0.11068522930145264, 0.1100085973739624, 0.40455854236863215, 1791403415055142736, 
-0.13855093717575073, 0.01480710506439209, 0.39316907632173703, 1791403415086369316, 
-0.13698655366897583, -0.16028016805648804, 0.3749743522455613, 1791403415118400532, 
0.09471827745437622, 0.0629228949546814, 0.43784343816438215, 1791403415145147024, 
-0.25223398208618164, 0.26090019941329956, 0.3985559211280797, 1791403415174229007, 
-0.006429910659790039, -0.13824093341827393, 0.39684824922257994, 1791403415205237499, 
-0.19752800464630127, 0.254824161529541, 0.42181707885497527, 1791403415235339739, 
0.09655612707138062, -0.014577269554138184, 0.40556441775172297, 1791403415265323418, 
-0.13546907901763916, -0.15840739011764526, 0.4009763290368216, 1791403415295251503, 
0.00048285722732543945, 0.1328544020652771, 0.4242631260866936, 1791403415325959517, 
-0.1203964352607727, 0.1041904091835022, 0.4056919175087502, 1791403415358294524, 
-0.04375380277633667, -0.24911099672317505, 0.41689003391781465, 1791403415395297996, 
-0.2886916399002075, 0.23321044445037842, 0.3822653545899158, 1791403415425255375, 
0.16186398267745972, 0.021008551120758057, 0.3891138355538993, 1791403415455385083, 
-0.002466440200805664, -0.1586204171180725, 0.37339872461087964, 1791403415486155001, 
-0.08957111835479736, 0.20709198713302612, 0.3702439296398125, 1791403415517834964, 
-0.029377639293670654, -0.05608689785003662, 0.44210930754804895, 1791403415545363079, 
-0.0792188048362732, -0.060868263244628906, 0.41970934002146965, 1791403415574428060, 
-0.042106032371520996, 0.2777090072631836, 0.39396418087894225, 1791403415605408197, 
-0.1874064803123474, 0.05416405200958252, 0.42068086080737016, 1791403415635511599, 
0.06920182704925537, -0.09760171175003052, 0.43430919566786724, 1791403415665505062, 
-0.07062065601348877, 0.1963423490524292, 0.41770156608715364, 1791403415695498542, 
-0.23566687107086182, -0.050897836685180664, 0.3949507377180434, 1791403415725922616, 
-0.029165327548980713, 0.029391944408416748, 0.35710745382101894, 1791403415758304545, 
0.1505916714668274, 0.22050213813781738, 0.4304515137949676, 1791403415785565770, 
-0.09741783142089844, -0.10745877027511597, 0.3857849767876162, 1791403415815676710, 
-0.024321794509887695, 0.009958386421203613, 0.39215863963976677, 1791403415845558943, 
-0.07413125038146973, 0.2615364193916321, 0.4130320027671398, 1791403415875593593, 
-0.07801008224487305, 0.005238533020019531, 0.39932312355912025, 1791403415905576896, 
-0.015930533409118652, -0.0980566143989563, 0.3891990598680417, 1791403415935646527, 
-0.10301631689071655, 0.19948184490203857, 0.4153534347158962, 1791403415965922967, 
-0.15674549341201782, -0.05340784788131714, 0.4007081215735645, 1791403415997877496, 
-0.2031843662261963, 0.030469179153442383, 0.43933347332722517, 1791403416025713247, 
-0.10967612266540527, 0.1643984317779541, 0.4093251715185265, 1791403416055784220, 
0.040574491024017334, -0.1690799593925476, 0.4011646469633584, 1791403416086520520, 
0.09013664722442627, 0.04775500297546387, 0.4162681822354439, 1791403416115450089, 
-0.04731088876724243, 0.11997663974761963, 0.4064346400602258, 1791403416145699171, 
0.05706655979156494, -0.0891985297203064, 0.4090971786955906, 1791403416175461871, 
-0.013163149356842041, 0.06668215990066528, 0.375298587536113, 1791403416206572542, 
-0.1237381100654602, 0.030695617198944092, 0.37838474905108244, 1791403416237980230, 
-0.08808261156082153, -0.04113435745239258, 0.4265175845131125, 1791403416265803608, 
-0.09023106098175049, 0.15777206420898438, 0.3917905732477526, 1791403416296515208, 
-0.005559742450714111, 0.055971622467041016, 0.4073234841031837, 1791403416326513944, 
0.12123310565948486, -0.10762226581573486, 0.4011014239747661, 1791403416356512137, 
-0.1100393533706665, 0.0845986008644104, 0.4351454542687935, 1791403416385435376, 
0.1207890510559082, 0.0031151771545410156, 0.40713838793972357, 1791403416416519313, 
-0.08669251203536987, 0.06075054407119751, 0.4052835858754563, 1791403416446502324, 
0.12519454956054688, 0.12923192977905273, 0.3927957175806546, 1791403416478318580, 
-0.18360525369644165, 0.02000904083251953, 0.4062166781503256, 1791403416508114479, 
-0.25526362657546997, 0.09621119499206543, 0.4317531182542339, 1791403416545472089, 
-0.08195304870605469, 0.03872537612915039, 0.40641062837879455, 1791403416576543431, 
0.15170741081237793, -0.08347982168197632, 0.37861957784066114, 1791403416606635013, 
-0.2161707878112793, 0.16295742988586426, 0.37234642653860955, 1791403416637892407, 
0.010551750659942627, 0.10197967290878296, 0.4384608020102155, 1791403416668004730, 
0.2634925842285156, -0.20060408115386963, 0.43964599793835135, 1791403416696551481, 
-0.09378737211227417, 0.10164773464202881, 0.40168834432412964, 1791403416726513350, 
0.0100821852684021, 0.2867710590362549, 0.39062065373631427, 1791403416748089246, 
0.1718495488166809, 0.07229804992675781, 0.42355400811895655, 1791403416776734397, 
-0.15922540426254272, -0.06625938415527344, 0.3968810819679354, 1791403416806584063, 
0.017210841178894043, 0.12561815977096558, 0.4122473607056661, 1791403416836595248, 
-0.014371097087860107, -0.03821033239364624, 0.406108271341843, 1791403416866693084, 
0.02739506959915161, 0.200927734375, 0.3756755928186808, 1791403416896645997, 
-0.09769904613494873, -0.0947723388671875, 0.38286135953680245, 1791403416926934197, 
0.3030286431312561, -0.17027628421783447, 0.38946736626954487, 1791403416958007742, 
-0.45282596349716187, 0.34715116024017334, 0.4218125720827304, 1791403416987726086, 
0.13713455200195312, -0.04212510585784912, 0.4304931030778177, 1791403417016602178, 
0.09983015060424805, -0.22433727979660034, 0.4039326506570785, 1791403417046631537, 
-0.21832239627838135, 0.3160880208015442, 0.4052747302043577, 1791403417076573499, 
-0.06641262769699097, -0.011407911777496338, 0.40484471569018393, 1791403417106623446, 
-0.12582319974899292, -0.05311518907546997, 0.3814572511719178, 1791403417136635177, 
0.11750823259353638, 0.19810837507247925, 0.3654490110349528, 1791403417166742467, 
-0.08933717012405396, -0.0934482216835022, 0.3684762667698297, 1791403417198027405, 
0.03641551733016968, 0.11298584938049316, 0.3817041033858233, 1791403417229098432, 
-0.22984570264816284, 0.22620725631713867, 0.4357598661749007, 1791403417256788591, 
0.34974032640457153, -0.1268731951713562, 0.4253640025441841, 1791403417286589501, 
-0.009488821029663086, 0.12763524055480957, 0.40833715079004057, 1791403417316596484, 
0.012063443660736084, 0.09579145908355713, 0.3888484310810892, 1791403417346632545, 
-0.17706739902496338, -0.15510255098342896, 0.39914016446479167, 1791403417376734708, 
-0.2977501153945923, 0.32625311613082886, 0.40149306930664863, 1791403417406673569, 
-0.051602840423583984, -0.016555488109588623, 0.37570835550985415, 1791403417438014358, 
0.008199214935302734, -0.23100882768630981, 0.36357900061925846, 1791403417469520159, 
0.20293539762496948, 0.2867787480354309, 0.44033162485706234, 1791403417496871221, 
-0.22711181640625, 0.07219845056533813, 0.41544779365464696, 1791403417526674762, 
0.20739781856536865, -0.20572620630264282, 0.41288301257488097, 1791403417556793374, 
-0.018352389335632324, 0.2389301061630249, 0.4169535356378837, 1791403417586683851, 
-0.09960722923278809, 0.1518687605857849, 0.40473500323663186, 1791403417616754427, 
-0.08760958909988403, -0.08730411529541016, 0.3852574196259511, 1791403417646880458, 
-0.11687862873077393, -0.0029917359352111816, 0.37924946493134454, 1791403417678548309, 
-0.1609373688697815, 0.0959775447845459, 0.37971606301178873, 1791403417709888264, 
0.07383197546005249, 0.20226067304611206, 0.4276875520692779, 1791403417736950579, 
0.011891067028045654, -0.07385766506195068, 0.38764271399183386, 1791403417766974929, 
-0.03800863027572632, -0.15990406274795532, 0.39962400514162405, 1791403417796947890, 
0.12278622388839722, 0.3032393455505371, 0.4146068374521697, 1791403417826949624, 
0.044276297092437744, 0.025818943977355957, 0.4063153355338646, 1791403417856932614, 
0.02459275722503662, -0.09421151876449585, 0.39674593775686484, 1791403417886910393, 
0.04120159149169922, 0.23264235258102417, 0.3915212101979538, 1791403417918014418, 
-0.18525320291519165, 0.015062451362609863, 0.3698089123860597, 1791403417950261987, 
-0.07603120803833008, 0.04680150747299194, 0.4426423870981476, 1791403417976922774, 
-0.12995564937591553, 0.011674642562866211, 0.4011897311350443, 1791403418007050881, 
0.14308369159698486, -0.057293474674224854, 0.3966698314520843, 1791403418036908832, 
-0.04144495725631714, -0.0547100305557251, 0.385563591319837, 1791403418066907502, 
-0.370872437953949, 0.35763347148895264, 0.3686630977684549, 1791403418096845833, 
0.23712366819381714, 0.02061903476715088, 0.39018804742053503, 1791403418126975151, 
0.7690883874893188, -0.12005734443664551, 0.4358675079451727, 1791403418158356803, 
-0.22867536544799805, 0.37454813718795776, 0.3991749117623413, 1791403418190564657, 
-0.9069935083389282, 0.08795779943466187, 0.4984955157968083, 1791403418216984745, 
0.2572017312049866, -0.14559721946716309, 0.45782336771470195, 1791403418246918791, 
-0.5382850170135498, -0.16521310806274414, 0.41076252800431384, 1791403418276920974, 
-0.1799534559249878, 0.052763521671295166, 0.3785244622250731, 1791403418306967856, 
-0.11772650480270386, 0.16339612007141113, 0.37076008494517876, 1791403418336936107, 
0.7740679979324341, -0.05391037464141846, 0.352614172039774, 1791403418367014903, 
0.034473419189453125, -0.012348055839538574, 0.36725332980259273, 1791403418398097637, 
-0.04998999834060669, 0.10709172487258911, 0.37295374684140575, 1791403418430278840, 
-0.32855522632598877, -0.013874292373657227, 0.4740916063801707, 1791403418457092679, 
0.13723713159561157, 0.1613587737083435, 0.4376785006130383, 1791403418487052436, 
-0.268480122089386, 0.043145835399627686, 0.4365538378705116, 1791403418517041043, 
0.28368282318115234, -0.1084790825843811, 0.4226823118564547, 1791403418547058634, 
-0.052145957946777344, 0.13828229904174805, 0.40551875101474216, 1791403418577058027, 
-0.010400116443634033, -0.053002238273620605, 0.39685830653357074, 1791403418607244180, 
0.0801396369934082, 0.25413602590560913, 0.3708665680847009, 1791403418638544733, 
-0.23042327165603638, 0.0941879153251648, 0.3600275991417724, 1791403418670312727, 
0.2958424687385559, -0.16920393705368042, 0.44964597541370255, 1791403418697254495, 
-0.2134476900100708, 0.38490545749664307, 0.4163716053683875, 1791403418727212524, 
-0.0864555835723877, -0.17334312200546265, 0.4293649814284593, 1791403418757208153, 
-0.08779102563858032, -0.16266381740570068, 0.4149455956857913, 1791403418787255223, 
0.051924705505371094, 0.23012912273406982, 0.3677732876534394, 1791403418817237054, 
0.22364598512649536, -0.10123181343078613, 0.3758221514342156, 1791403418847297272, 
-0.07210898399353027, 0.2084013819694519, 0.383185512478614, 1791403418878004600, 
0.13311225175857544, -0.01860499382019043, 0.37431270265333144, 1791403418910318023, 
0.012608349323272705, -0.14157956838607788, 0.4378748945499695, 1791403418937335917, 
-0.0230940580368042, 0.31656622886657715, 0.39542217529296353, 1791403418967335696, 
-0.08040952682495117, 0.049552977085113525, 0.41959345149990496, 1791403418997294225, 
-0.1499595046043396, -0.10309290885925293, 0.4244597584036361, 1791403419026345020, 
0.11133092641830444, 0.20349138975143433, 0.3963347435123344, 1791403419057346886, 
0.0510098934173584, -0.0977025032043457, 0.3941341152899003, 1791403419087420283, 
0.26539504528045654, -0.06835216283798218, 0.36678840504682103, 1791403419118064372, 
-0.15762829780578613, 0.26715368032455444, 0.35191594096272644, 1791403419151253813, 
0.07712888717651367, -0.02596038579940796, 0.4451560456613667, 1791403419177507353, 
-0.16766208410263062, 0.2770775556564331, 0.39750943165006164, 1791403419207522502, 
0.16949594020843506, -0.14891952276229858, 0.4215242036670841, 1791403419237480607, 
0.12447768449783325, -0.03814631700515747, 0.3934396807676897, 1791403419267533687, 
-0.10502427816390991, 0.1452239751815796, 0.42022086505238887, 1791403419297509493, 
0.03186005353927612, -0.04853415489196777, 0.41775069925465896, 1791403419327573523, 
-0.031217336654663086, 0.16587644815444946, 0.38920407394091855, 1791403419358036275, 
0.21682631969451904, 0.008689701557159424, 0.3718196241520941, 1791403419390577165, 
-0.08250224590301514, -0.03350120782852173, 0.44211746063006613, 1791403419417593709, 
0.07384896278381348, 0.13235074281692505, 0.4207324514467908, 1791403419447621328, 
-0.1305355429649353, 0.010888636112213135, 0.41308474413351903, 1791403419477652752, 
0.07547283172607422, -0.0649985671043396, 0.410451191685399, 1791403419507748302, 
-0.1368083357810974, -0.03649419546127319, 0.41897242122263884, 1791403419537656132, 
0.22845196723937988, 0.030628502368927002, 0.39054865516780235, 1791403419567729494, 
-0.07759755849838257, 0.2569301724433899, 0.3782309445132112, 1791403419598471929, 
-0.21179109811782837, 0.04352360963821411, 0.3742580396070369, 1791403419630082961, 
0.08790361881256104, -0.2594969868659973, 0.4459947652494843, 1791403419657764897, 
-0.1864946484565735, 0.22034800052642822, 0.40791701550607967, 1791403419687787893, 
0.036733269691467285, 0.16136515140533447, 0.41422824209451475, 1791403419717760997, 
-0.0007542967796325684, 0.05609130859375, 0.39175736020054786, 1791403419747792292, 
-0.17693865299224854, -0.12008029222488403, 0.40362344752103524, 1791403419777787928, 
0.3953419327735901, -0.09667003154754639, 0.40523955503233344, 1791403419807810598, 
-0.2090504765510559, 0.3656529188156128, 0.37711786526199503, 1791403419838419392, 
0.08711981773376465, -0.034587085247039795, 0.3877881614435648, 1791403419870081462, 
-0.2245427966117859, -0.07265198230743408, 0.4148030745609161, 1791403419897857907, 
0.09348374605178833, 0.16916441917419434, 0.405222185416677, 1791403419927893098, 
-0.10874491930007935, -0.0807763934135437, 0.4178497811025576, 1791403419957873231, 
0.21778088808059692, -0.06907254457473755, 0.40820939120408933, 1791403419987952312, 
-0.10787332057952881, 0.1058664321899414, 0.41396546879616913, 1791403420017916977, 
0.2391883134841919, -0.03964078426361084, 0.3835464459621423, 1791403420047985734, 
-0.20263344049453735, 0.2675560712814331, 0.37742965897596176, 1791403420078089513, 
-0.3018801212310791, -0.17692935466766357, 0.3737036702024945, 1791403420110785059, 
0.299333393573761, -0.12211024761199951, 0.466121234423292, 1791403420137982805, 
-0.29031985998153687, 0.3445720672607422, 0.40124138235566875, 1791403420168034028, 
0.4987436532974243, -0.19059205055236816, 0.39538516185165407, 1791403420197982974, 
0.012541532516479492, -0.08085620403289795, 0.40853704141591013, 1791403420228034774, 
-0.12199974060058594, 0.055580079555511475, 0.4047717843472382, 1791403420257999898, 
-0.01679515838623047, 0.0036047697067260742, 0.4147454420547964, 1791403420288075420, 
-0.005775570869445801, 0.28820663690567017, 0.415323219318347, 1791403420318162142, 
-0.021033287048339844, -0.06753039360046387, 0.38418820114156316, 1791403420350093488, 
-0.11883318424224854, 0.091633141040802, 0.3824421468887317, 1791403420380251467, 
-0.02404242753982544, -0.15322452783584595, 0.40805474585747903, 1791403420418181860, 
-0.006070256233215332, 0.09768843650817871, 0.37930082529681464, 1791403420448193440, 
0.24384433031082153, 0.14011967182159424, 0.40214390414296447, 1791403420478420648, 
-0.259333074092865, -0.05695021152496338, 0.38768079218267965, 1791403420510499473, 
0.282573938369751, 0.1298428773880005, 0.4243201617978313, 1791403420540376666, 
-0.3562968969345093, 0.05922079086303711, 0.45918406290815666, 1791403420568236941, 
0.33288562297821045, -0.22923779487609863, 0.42934182374553764, 1791403420598248626, 
-0.31592971086502075, 0.00856250524520874, 0.4109592017410658, 1791403420628278999, 
0.1979309320449829, -0.15855270624160767, 0.3880449772240185, 1791403420658289056, 
-0.13148170709609985, 0.23502826690673828, 0.3444231423601639, 1791403420688291203, 
0.02752399444580078, 0.020907998085021973, 0.35034822926777837, 1791403420718366378, 
-0.017994999885559082, -0.04215359687805176, 0.36078578324515903, 1791403420750538119, 
-0.06453043222427368, 0.2168349027633667, 0.4037814903597423, 1791403420780890229, 
0.0875667929649353, -0.028883039951324463, 0.4526819810248156, 1791403420808377804, 
-0.25708597898483276, -0.09007894992828369, 0.39344081129047687, 1791403420838379495, 
0.23861229419708252, -0.17602276802062988, 0.40331160857814347, 1791403420868425438, 
-0.1451423168182373, 0.2094656229019165, 0.3958992638698377, 1791403420897430956, 
0.19296419620513916, 0.25120073556900024, 0.39520421361597224, 1791403420927461514, 
-0.20266419649124146, -0.12023061513900757, 0.3942451016975485, 1791403420958507021, 
0.12212198972702026, -0.03898352384567261, 0.3949078147630432, 1791403420989339051, 
-0.10673028230667114, 0.015650391578674316, 0.39081649813147407, 1791403421021242523, 
0.30730199813842773, -0.11663693189620972, 0.46288372600755545, 1791403421048548030, 
0.042630791664123535, 0.07643413543701172, 0.4299801223447664, 1791403421078512486, 
-0.1894018054008484, -0.041082799434661865, 0.39348670098302546, 1791403421108536943, 
-0.01911693811416626, 0.04882138967514038, 0.3828471764735122, 1791403421138534888, 
-0.10844123363494873, 0.07319319248199463, 0.39790712148322327, 1791403421168678929, 
0.2045878767967224, -0.05774736404418945, 0.4109425639974786, 1791403421198853259, 
-0.17039501667022705, 0.14827722311019897, 0.3980580155200223, 1791403421230371671, 
0.28757286071777344, -0.0197715163230896, 0.4133886401584106, 1791403421261412602, 
-0.43033796548843384, 0.1143045425415039, 0.4322476151974226, 1791403421288711904, 
0.19179439544677734, 0.023278772830963135, 0.4066596983161956, 1791403421318681594, 
-0.19708490371704102, -0.015704035758972168, 0.40289097980141036, 1791403421348691696, 
0.08293730020523071, 0.1372721791267395, 0.4030079508736941, 1791403421378734213, 
-0.24709391593933105, -0.13260698318481445, 0.39051251212381377, 1791403421408753379, 
0.11905795335769653, -0.053176820278167725, 0.39463626402467933, 1791403421438759940, 
-0.12355226278305054, -0.053160250186920166, 0.38239877493267105, 1791403421470181839, 
0.41502517461776733, 0.04687148332595825, 0.36038944202089357, 1791403421502153418, 
-0.2135501503944397, 0.39262473583221436, 0.43486468148117713, 1791403421528866285, 
0.349176287651062, -0.13323068618774414, 0.3915778172925897, 1791403421558819506, 
-0.13464534282684326, -0.08072066307067871, 0.38127423471254634, 1791403421588800383, 
-0.15997463464736938, -0.14784026145935059, 0.4009380598955906, 1791403421618824527, 
-0.10181427001953125, -0.04714775085449219, 0.4217003236549239, 1791403421648851342, 
-0.01086968183517456, 0.24375253915786743, 0.41791977784973217, 1791403421678941581, 
0.1658899188041687, -0.10653853416442871, 0.35689259479607616, 1791403421710608860, 
0.02784508466720581, 0.008351743221282959, 0.3707948432205058, 1791403421741452942, 
0.04856234788894653, 0.10493814945220947, 0.44517623484729807, 1791403421769008631, 
-0.1745029091835022, -0.11098498106002808, 0.41974357826618824, 1791403421798954468, 
0.031120657920837402, 0.11513662338256836, 0.4417470904808951, 1791403421828966163, 
-0.08616721630096436, -0.12130576372146606, 0.42085280533041036, 1791403421859008995, 
0.33683162927627563, -0.03897351026535034, 0.38409706446551023, 1791403421889020276, 
0.029820919036865234, 0.08403843641281128, 0.3738959273213466, 1791403421919022695, 
0.13493305444717407, -0.12169498205184937, 0.37973112808168114, 1791403421950205903, 
-0.11513704061508179, 0.2877945303916931, 0.38178995069152893, 1791403421982181283, 
0.14489924907684326, -0.23035669326782227, 0.46213412472923354, 1791403422009128455, 
-0.12884098291397095, 0.0016080141067504883, 0.4092108556578182, 1791403422039147367, 
0.14410901069641113, -0.03003770112991333, 0.4019418880215999, 1791403422069134300, 
-0.2197752594947815, -0.06333667039871216, 0.3887754942155276, 1791403422099108054, 
-0.10799849033355713, 0.041362881660461426, 0.3832401125746206, 1791403422129135067, 
-0.040117621421813965, -0.1737571358680725, 0.38601302588167324, 1791403422159201517, 
0.06815141439437866, 0.17981702089309692, 0.3830980801165157, 1791403422190735003, 
-0.03971678018569946, -0.10564655065536499, 0.38310762314194097, 1791403422222806552, 
0.23612332344055176, 0.028623878955841064, 0.45084265879824237, 1791403422249294793, 
-0.1076250672340393, -0.002938389778137207, 0.39235243422763144, 1791403422279228383, 
0.027684390544891357, 0.024576783180236816, 0.37931066526383816, 1791403422309208557, 
-0.032648563385009766, 0.21522873640060425, 0.39341367719970716, 1791403422339333759, 
-0.337688684463501, -0.14463603496551514, 0.4137006070984042, 1791403422369279331, 
0.16842615604400635, -0.0697484016418457, 0.40120089039375934, 1791403422399273982, 
-0.1132848858833313, -0.004347264766693115, 0.37721535312859755, 1791403422430222085, 
0.491615355014801, 0.0207672119140625, 0.3490525398387733, 1791403422462298861, 
-0.41133105754852295, 0.3139525055885315, 0.4350188140869299, 1791403422489357540, 
0.12513482570648193, -0.19100803136825562, 0.42141516303592613, 1791403422519338703, 
-0.21337515115737915, -0.08447009325027466, 0.41812532377951994, 1791403422549368217, 
0.37475693225860596, -0.042677223682403564, 0.4208176755202107, 1791403422579383786, 
0.023666083812713623, 0.045530855655670166, 0.3819066989000903, 1791403422609410316, 
0.08408260345458984, 0.11580592393875122, 0.4106223297074121, 1791403422638520527, 
-0.28895705938339233, -0.06280255317687988, 0.3736239829866853, 1791403422670666395, 
0.29949212074279785, -0.020260334014892578, 0.40144627963662066, 1791403422702287037, 
-0.31213289499282837, 0.10134994983673096, 0.4650400620776065, 1791403422729579437, 
0.5167959928512573, -0.1514066457748413, 0.4189363902851374, 1791403422759571608, 
-0.30179399251937866, 0.09090793132781982, 0.40217174115020154, 1791403422789567355, 
0.28434914350509644, -0.11897581815719604, 0.4021604510306401, 1791403422819540712, 
-0.3108906149864197, 0.21012252569198608, 0.4163339942435724, 1791403422848606585, 
0.15675616264343262, -0.11105906963348389, 0.39837987789507445, 1791403422879678983, 
-0.23316115140914917, 0.14686357975006104, 0.387640405437885, 1791403422909469163, 
0.16102313995361328, -0.18193262815475464, 0.3734251570128289, 1791403422942217758, 
0.09082174301147461, -0.10895669460296631, 0.4322268331753726, 1791403422969669047, 
-0.16745507717132568, 0.2779123783111572, 0.40317239759199386, 1791403422999650223, 
0.16841542720794678, -0.06947404146194458, 0.4179601690561196, 1791403423029674822, 
-0.2953728437423706, 0.15846580266952515, 0.3946969309117449, 1791403423059700900, 
0.25806695222854614, -0.27820122241973877, 0.410140985997933, 1791403423089740243, 
-0.055365800857543945, -0.06502330303192139, 0.4008242983565346, 1791403423119719823, 
0.08990144729614258, 0.14095938205718994, 0.3733916418378689, 1791403423150548914, 
-0.09478986263275146, -0.12280809879302979, 0.345553200401564, 1791403423182734833, 
-0.29474955797195435, 0.24925953149795532, 0.43828217943246933, 1791403423209837203, 
-0.08844894170761108, -0.11600631475448608, 0.4054251927691136, 1791403423239788973, 
0.028870999813079834, -0.05300748348236084, 0.4092909794590963, 1791403423269786706, 
-0.0638318657875061, -0.16387182474136353, 0.41561311125850614, 1791403423299787951, 
0.010522603988647461, -0.02945578098297119, 0.37307624726126093, 1791403423329799002, 
0.11192470788955688, 0.23491621017456055, 0.3603360403438234, 1791403423359823560, 
-0.03598487377166748, -0.011947333812713623, 0.3928987177195004, 1791403423390274480, 
-0.009702861309051514, 0.09168440103530884, 0.39951831761646167, 1791403423422476089, 
-0.046482741832733154, 0.016167044639587402, 0.461286664854381, 1791403423450146953, 
0.22586143016815186, -0.17557483911514282, 0.42884319796460846, 1791403423479939730, 
-0.09776347875595093, 0.05010706186294556, 0.40154096453858645, 1791403423509945167, 
0.07867002487182617, -0.1073983907699585, 0.40158381959705064, 1791403423539975686, 
-0.2511941194534302, 0.3213499188423157, 0.40518652604803646, 1791403423570130721, 
0.0782315731048584, -0.12220442295074463, 0.4075850239012433, 1791403423599991729, 
0.20611196756362915, -0.04957658052444458, 0.3864248418323621, 1791403423630922405, 
-0.04845845699310303, -0.12256592512130737, 0.3862512185898958, 1791403423662362220, 
0.4039667844772339, -0.03652292490005493, 0.41820718914233695, 1791403423690092570, 
-0.6718053817749023, 0.2889867424964905, 0.4083171755537176, 1791403423720068247, 
0.3775082230567932, 0.11766165494918823, 0.4126991279955746, 1791403423750113966, 
-0.207533597946167, 0.17415183782577515, 0.4215279167407775, 1791403423780110951, 
-0.009918153285980225, -0.19901823997497559, 0.4286654953818306, 1791403423810081803, 
0.09605330228805542, -0.021364152431488037, 0.38352860873491473, 1791403423840079209, 
-0.366318941116333, 0.030814826488494873, 0.35716140743845853, 1791403423870538581, 
-0.010355949401855469, -0.01942819356918335, 0.34059860503932865, 1791403423902349226, 
-0.04708963632583618, 0.04950827360153198, 0.43074670424070344, 1791403423930246638, 
0.2647858262062073, -0.06176513433456421, 0.4197722727337027, 1791403423960214833, 
-0.0978512167930603, 0.1139264702796936, 0.42072176181887877, 1791403423990206555, 
0.19673049449920654, -0.14063268899917603, 0.39919773701731015, 1791403424020252806, 
0.03350555896759033, 0.07654023170471191, 0.3709885113459269, 1791403424050218483, 
-0.30777519941329956, -0.10972028970718384, 0.3978389627530739, 1791403424080246647, 
0.24415171146392822, 0.0007315278053283691, 0.3880825259702059, 1791403424111072890, 
-0.44002383947372437, -0.011670708656311035, 0.39298174747508374, 1791403424142731856, 
0.340082585811615, -0.0899781584739685, 0.44449067947691145, 1791403424170352454, 
-0.10375809669494629, 0.21613043546676636, 0.40059662984545347, 1791403424200282777, 
-0.01831960678100586, 0.06749868392944336, 0.41634247239427, 1791403424230345731, 
0.06817018985748291, 0.027114391326904297, 0.41480058626883054, 1791403424260346521, 
-0.46888697147369385, -0.13620245456695557, 0.42045510801109515, 1791403424290383955, 
0.6403139233589172, -0.14757061004638672, 0.41083949777666784, 1791403424320377305, 
-0.27037549018859863, 0.1537107229232788, 0.40636512394139046, 1791403424349464760, 
0.21293896436691284, 0.04040032625198364, 0.34715868390475807, 1791403424382558058, 
-0.27554112672805786, 0.24959099292755127, 0.4316070093893877, 1791403424410522271, 
-0.003931105136871338, -0.11893564462661743, 0.4498787652670919, 1791403424439444746, 
0.037197649478912354, -0.05628544092178345, 0.4229608919745228, 1791403424469464528, 
-0.1490914225578308, -0.2602243423461914, 0.42219473809603963, 1791403424499465491, 
0.1392226219177246, 0.035317063331604004, 0.3658276223986209, 1791403424530538171, 
-0.3474379777908325, 0.3573436737060547, 0.38189377158089544, 1791403424560567166, 
0.36407607793807983, -0.03957998752593994, 0.38714453594728765, 1791403424590753360, 
-0.17108261585235596, -0.14964306354522705, 0.38568727755989984, 1791403424622363515, 
-0.05247688293457031, -0.2096295952796936, 0.4433505836737049, 1791403424650739447, 
0.05622422695159912, 0.2904898524284363, 0.41532828436809294, 1791403424680634330, 
-0.16169697046279907, 0.08628487586975098, 0.4036989467098709, 1791403424710583742, 
-0.03563034534454346, -0.06852716207504272, 0.3966051833219791, 1791403424739624149, 
-0.0853680968284607, -0.270216703414917, 0.3751915466312555, 1791403424770643204, 
-0.06892663240432739, -0.08005446195602417, 0.40885225310055084, 1791403424799670568, 
0.09165215492248535, 0.28382378816604614, 0.38771137952823514, 1791403424830720756, 
0.004545807838439941, 0.1855027675628662, 0.36675931164452436, 1791403424862527056, 
0.08644181489944458, 0.08156204223632812, 0.3966582811806286, 1791403424892794983, 
-0.20019680261611938, -0.12707573175430298, 0.4448470897843254, 1791403424920705244, 
-0.1308358907699585, -0.025908470153808594, 0.4263744026185758, 1791403424950736473, 
0.08331263065338135, -0.11598491668701172, 0.41213213451268443, 1791403424980875448, 
-0.12933814525604248, 0.28463494777679443, 0.36804920366334937, 1791403425010732563, 
0.12297683954238892, 0.024491429328918457, 0.3867922981715257, 1791403425040765326, 
-0.002364814281463623, -0.09425234794616699, 0.39567989068409526, 1791403425070824686, 
-0.21185559034347534, 0.12048286199569702, 0.38318502567543977, 1791403425103004096, 
0.21575897932052612, -0.014074981212615967, 0.4207893954259955, 1791403425132486944, 
-0.23556965589523315, 0.081551194190979, 0.4093085425676774, 1791403425160898336, 
-0.2500503659248352, -0.1220744252204895, 0.39689686668210283, 1791403425190882889, 
0.24358117580413818, -0.009450793266296387, 0.40103139568926793, 1791403425220912667, 
-0.5945295095443726, -0.0811302661895752, 0.4132873833873532, 1791403425250924945, 
0.5573614239692688, 0.06590002775192261, 0.4127554360306887, 1791403425280953634, 
-0.1827961802482605, 0.10632842779159546, 0.41995811706499503, 1791403425311100798, 
0.2866649627685547, 0.11490082740783691, 0.36742850231957763, 1791403425342384997, 
-0.059494972229003906, 0.01651477813720703, 0.3510583285151994, 1791403425373869933, 
-0.3887220621109009, -0.17244726419448853, 0.4256872709301726, 1791403425400983666, 
0.33243197202682495, -0.00587230920791626, 0.41053716073773133, 1791403425431058749, 
-0.25858527421951294, 0.007118165493011475, 0.41635270297793786, 1791403425461069946, 
-0.12680691480636597, 0.2290116548538208, 0.36997378703652567, 1791403425491119758, 
-0.34608107805252075, -0.27441132068634033, 0.39218680996209804, 1791403425521023639, 
-0.05308717489242554, -0.14434003829956055, 0.41723554283187575, 1791403425551011361, 
-0.4402732253074646, 0.08681386709213257, 0.4199863140929371, 1791403425582360625, 
0.8189764618873596, 0.10684466361999512, 0.3871750852123659, 1791403425614154952, 
-0.4245905876159668, 0.18418240547180176, 0.4217734832063797, 1791403425641319674, 
-0.10087651014328003, -0.05363970994949341, 0.3904464477726247, 1791403425671138423, 
-0.06605833768844604, 0.028040170669555664, 0.40348576441525924, 1791403425701224278, 
-0.12729918956756592, -0.131222665309906, 0.4362084325292671, 1791403425731196883, 
0.2964257001876831, 0.02483159303665161, 0.3976840149249602, 1791403425761936892, 
-0.3177047371864319, 0.08986711502075195, 0.418338485966987, 1791403425791230675, 
0.5012720823287964, 0.06797689199447632, 0.39446550437487804, 1791403425822410108, 
-0.5812309384346008, 0.017762482166290283, 0.37799122794453377, 1791403425854647466, 
0.404638409614563, -0.15769225358963013, 0.47455567449336256, 1791403425881281462, 
-0.2967190146446228, 0.0724329948425293, 0.4027345224466478, 1791403425911235360, 
0.25917893648147583, -0.08225643634796143, 0.37981073159072215, 1791403425941278151, 
-0.46063166856765747, 0.23806530237197876, 0.3953611236271926, 1791403425971376340, 
0.2539219260215759, -0.08539438247680664, 0.42673814899773355, 1791403426001314499, 
-0.021171391010284424, -0.22121304273605347, 0.4271247526049274, 1791403426031357863, 
-0.25431060791015625, -0.15445971488952637, 0.39247194259591484, 1791403426062846576, 
0.20859432220458984, 0.16030335426330566, 0.3536642962900427, 1791403426094613828, 
-0.34168511629104614, 0.3926965594291687, 0.38987434693731277, 1791403426121405800, 
0.2281782031059265, -0.2650720477104187, 0.383590013273514, 1791403426151427522, 
-0.1273999810218811, 0.013949036598205566, 0.4048138186072359, 1791403426181689066, 
0.02259880304336548, -0.030349671840667725, 0.411624627604784, 1791403426211490361, 
-0.20109844207763672, 0.3183367848396301, 0.41596977691987835, 1791403426240469178, 
-0.326837956905365, -0.12006384134292603, 0.41089789359022455, 1791403426271550942, 
0.015791594982147217, -0.14410781860351562, 0.4126362981466981, 1791403426302571604, 
0.012742698192596436, -0.2553074359893799, 0.3795017109968918, 1791403426334878101, 
0.3775034546852112, 0.20145297050476074, 0.3998761802027668, 1791403426362103425, 
-0.42658209800720215, 0.07051455974578857, 0.380943905010759, 1791403426392045486, 
0.3225836753845215, -0.19304388761520386, 0.4187132747513313, 1791403426422050756, 
-0.15256404876708984, -0.06768923997879028, 0.43250681075140235, 1791403426452203457, 
0.12840086221694946, 0.1315631866455078, 0.4312627489359388, 1791403426482096026, 
-0.4429279565811157, 0.09699863195419312, 0.4057758751021524, 1791403426512166162, 
0.2966458797454834, -0.10284000635147095, 0.4108609169343511, 1791403426542490092, 
-0.3715212345123291, 0.202989399433136, 0.35755629613444206, 1791403426575173745, 
0.3016837239265442, -0.13883286714553833, 0.4189104417529785, 1791403426602409298, 
0.10486721992492676, 0.0871877670288086, 0.3874301682658419, 1791403426632179956, 
-0.3418760299682617, -0.052781105041503906, 0.4128021210861468, 1791403426662093924, 
0.023910999298095703, 0.05368685722351074, 0.41480924048546186, 1791403426692091450, 
-0.4133235216140747, 0.06822186708450317, 0.4183022311631044, 1791403426722111617, 
0.24239099025726318, -0.12656384706497192, 0.4307840139357798, 1791403426750784469, 
-0.32499247789382935, -0.09269237518310547, 0.3742017549154737, 1791403426782861751, 
0.4387531280517578, 0.16988718509674072, 0.35724202603879046, 1791403426813620001, 
-0.48058021068573, 0.39612364768981934, 0.4151199936245943, 1791403426841858650, 
0.27899760007858276, -0.12210744619369507, 0.4259794023327253, 1791403426871806970, 
0.06750369071960449, 0.1143907904624939, 0.41361608737029704, 1791403426901843220, 
0.1900385022163391, -0.1408560872077942, 0.4202733320118178, 1791403426931875335, 
-0.16624993085861206, 0.19208014011383057, 0.39239204039495584, 1791403426961947506, 
-0.4988574981689453, 0.0016562342643737793, 0.41537949576358435, 1791403426991951472, 
0.007874608039855957, -0.04105108976364136, 0.3982795268290222, 1791403427022981789, 
-0.4275882840156555, -0.14721465110778809, 0.38184534821652694, 1791403427054725288, 
0.23706048727035522, -0.04132723808288574, 0.4158077763502529, 1791403427082026539, 
-0.22187960147857666, 0.26435691118240356, 0.3678509971076509, 1791403427111996879, 
0.4550139904022217, -0.12160331010818481, 0.39886954454154805, 1791403427142031332, 
-0.2316167950630188, 0.2817602753639221, 0.43532485073986144, 1791403427172065930, 
-0.00128173828125, -0.07250601053237915, 0.433907595285248, 1791403427202101433, 
-0.43540632724761963, 0.09814447164535522, 0.4188515068898536, 1791403427232059501, 
0.1253700852394104, -0.14615225791931152, 0.40769379722894244, 1791403427262498873, 
-0.09830707311630249, 0.27911674976348877, 0.3726069663668522, 1791403427294963976, 
0.052373528480529785, -0.13709086179733276, 0.4493628524667621, 1791403427322145007, 
0.17775648832321167, -0.027265310287475586, 0.41625270261359115, 1791403427352136008, 
-0.4444078207015991, 0.046816349029541016, 0.40439207560846935, 1791403427382151156, 
0.00022083520889282227, 0.16390681266784668, 0.3847416656619295, 1791403427412183998, 
-0.326419472694397, -0.07884573936462402, 0.3706325028777193, 1791403427442207368, 
0.2792667746543884, -0.03510493040084839, 0.4006576302148572, 1791403427472275890, 
-0.09861654043197632, -0.10564923286437988, 0.4120770263555602, 1791403427502536383, 
0.14376670122146606, 0.03410226106643677, 0.3661752551547175, 1791403427535021609, 
-0.1542569398880005, 0.2976721525192261, 0.43344055843094437, 1791403427562291545, 
-0.14651751518249512, -0.16944128274917603, 0.40726745772747086, 1791403427592254776, 
-0.1708240509033203, -0.14223188161849976, 0.4089402950957268, 1791403427622222897, 
0.38216090202331543, 0.11463350057601929, 0.38351463203115677, 1791403427652305892, 
-0.26038700342178345, 0.4324047565460205, 0.36535300246909236, 1791403427682267811, 
-0.13223809003829956, -0.06312769651412964, 0.39147592161495914, 1791403427712323370, 
0.12268805503845215, -0.032305777072906494, 0.4148856714038327, 1791403427742526533, 
-0.12787485122680664, -0.06367677450180054, 0.3878550695267744, 1791403427774605949, 
0.06891405582427979, 0.03744518756866455, 0.4173597876446565, 1791403427802423787, 
-0.559410572052002, -0.17379355430603027, 0.4075293401975397, 1791403427832391039, 
0.10042798519134521, 0.0673491358757019, 0.4097337850415584, 1791403427862420656, 
-0.2801692485809326, -0.041514456272125244, 0.4168993664774551, 1791403427892415539, 
0.45019495487213135, -0.03893369436264038, 0.398384101467845, 1791403427921445066, 
-0.31633782386779785, 0.07820135354995728, 0.3896220735018748, 1791403427951464001, 
0.09213626384735107, 0.20804756879806519, 0.3800866112891715, 1791403427982923794, 
-0.3856527805328369, -0.29709094762802124, 0.39372195542288435, 1791403428014942454, 
0.3525339961051941, 0.05589711666107178, 0.4392158291360581, 1791403428042847170, 
-0.4694669842720032, 0.09436523914337158, 0.4160190970487178, 1791403428072638572, 
0.3647122383117676, 0.10519152879714966, 0.402783228731153, 1791403428102512288, 
-0.6771730184555054, -0.2623329162597656, 0.40304360730608213, 1791403428132747988, 
0.3237186074256897, -0.13764327764511108, 0.426629368657058, 1791403428162553880, 
-0.52065110206604, 0.3113780617713928, 0.4077933558899144, 1791403428192579195, 
0.44917619228363037, -0.014805138111114502, 0.3983393055474351, 1791403428222583396, 
-0.34063398838043213, 0.11079859733581543, 0.3562815903598489, 1791403428255041887, 
0.2765374779701233, 0.1315355896949768, 0.4326958981208218, 1791403428282701177, 
-0.12045520544052124, 0.0260922908782959, 0.38754950120665815, 1791403428312667444, 
0.020457148551940918, 0.013092219829559326, 0.3969175420931289, 1791403428342672104, 
0.2061448097229004, 0.20315366983413696, 0.353363166833861, 1791403428364772742, 
-0.5582032203674316, -0.11990082263946533, 0.4407423976157281, 1791403428402702413, 
0.26562684774398804, -0.14909666776657104, 0.39984125064870607, 1791403428432757203, 
-0.4326382875442505, 0.03505736589431763, 0.39502851128461725, 1791403428463118820, 
0.15794742107391357, 0.28033512830734253, 0.36501126701803865, 1791403428495066199, 
-0.47137582302093506, -0.048733294010162354, 0.4047898810545826, 1791403428525354383, 
0.4543544054031372, -0.19156956672668457, 0.4476434903916937, 1791403428552853080, 
-0.27976059913635254, 0.11079519987106323, 0.4169145379668828, 1791403428582773617, 
0.026628732681274414, 0.24097001552581787, 0.4218084912066192, 1791403428611818824, 
-0.3997099995613098, 0.04072976112365723, 0.4150571561172971, 1791403428642833346, 
0.26000380516052246, -0.07394862174987793, 0.4358979910934456, 1791403428672899186, 
-0.35608357191085815, 0.1732460856437683, 0.4039175305866865, 1791403428702908521, 
-0.03390038013458252, -0.22225427627563477, 0.3560864846229883, 1791403428734670099, 
-0.04834413528442383, 0.31764209270477295, 0.36564347691497495, 1791403428764432643, 
0.07885342836380005, 0.19257742166519165, 0.4331818633077902, 1791403428793019348, 
-0.08344703912734985, 0.1371569037437439, 0.41838542638945597, 1791403428822936450, 
-0.1468791961669922, -0.25353050231933594, 0.41231904004656245, 1791403428852994484, 
0.007052898406982422, 0.2599848508834839, 0.4043480829530245, 1791403428883058325, 
-0.07090312242507935, 0.11059063673019409, 0.39442067355691807, 1791403428913157355, 
-0.06582778692245483, 0.1586194634437561, 0.37026543217466723, 1791403428943197435, 
-0.09320110082626343, -0.15091603994369507, 0.35531230511974143, 1791403428975096844, 
0.06394118070602417, 0.3280605673789978, 0.39980754325675544, 1791403429005000442, 
-0.05235397815704346, 0.10418432950973511, 0.45602338780093277, 1791403429033156768, 
-0.08166301250457764, -0.019540131092071533, 0.39660074710781446, 1791403429063097678, 
-0.2938758134841919, -0.09754127264022827, 0.3546942297985823, 1791403429085826966, 
-0.0019162893295288086, 0.38562965393066406, 0.42056160206878496, 1791403429123129349, 
-0.18555504083633423, 0.11188119649887085, 0.41187715284745247, 1791403429153168020, 
0.02627861499786377, -0.08221757411956787, 0.40737743958623507, 1791403429183214333, 
-0.3260881304740906, -0.22119927406311035, 0.3972121470621132, 1791403429214670029, 
0.23306959867477417, 0.3102331757545471, 0.3875088956054768, 1791403429246547671, 
-0.13040214776992798, 0.0338977575302124, 0.4624056650170164, 1791403429283210451, 
0.18625915050506592, 0.06801438331604004, 0.40645098138866587, 1791403429313287123, 
-0.4301242232322693, -0.26469844579696655, 0.3894147394584507, 1791403429343238158, 
0.19673776626586914, 0.13647973537445068, 0.3473355377707304, 1791403429374817306, 
-0.18939530849456787, 0.24767804145812988, 0.39178159022414505, 1791403429406669633, 
0.10858142375946045, 0.09528577327728271, 0.5040202300852965, 1791403429432444902, 
-0.2684127688407898, -0.3226630687713623, 0.42584744365260907, 1791403429463286329, 
0.2164267897605896, -0.013482749462127686, 0.4050287008397867, 1791403429493315539, 
-0.5687777996063232, 0.27291297912597656, 0.3944766477436195, 1791403429523339622, 
0.20290309190750122, 0.025376558303833008, 0.3818168292212483, 1791403429553393072, 
-0.447060227394104, -0.28707897663116455, 0.38929273175262014, 1791403429583409659, 
0.7205921411514282, -0.018823862075805664, 0.3672296318668355, 1791403429614814155, 
-0.5823742151260376, 0.5019168853759766, 0.3762929636434536, 1791403429647340302, 
0.22500145435333252, 0.20277416706085205, 0.46526714587533, 1791403429683424372, 
-0.4351695775985718, -0.36524420976638794, 0.41866427892072255, 1791403429713496661, 
0.2173362374305725, 0.0018562674522399902, 0.3974020095083908, 1791403429743522431, 
-0.38922083377838135, 0.19522660970687866, 0.37139820937920004, 1791403429775270666, 
0.2331451177597046, 0.22870862483978271, 0.3893440535186208, 1791403429806137782, 
-0.3798062205314636, -0.2173575758934021, 0.4494517075028404, 1791403429833546523, 
0.24384498596191406, -0.05504608154296875, 0.4166483729305432, 1791403429863518382, 
-0.3439544439315796, 0.3801301121711731, 0.3627320527611429, 1791403429886923960, 
0.2959592342376709, 0.08347439765930176, 0.45881402175739006, 1791403429923561724, 
-0.21825778484344482, -0.2802453637123108, 0.38686119164385596, 1791403429953864040, 
0.41948020458221436, 0.07892990112304688, 0.39781570782140624, 1791403429983657247, 
-0.34570467472076416, 0.19919449090957642, 0.3765297252154625, 1791403430015105896, 
-0.0039310455322265625, 0.018893539905548096, 0.36777572520863666, 1791403430046825380, 
-0.24543297290802002, -0.08907639980316162, 0.4348450590295006, 1791403430073735631, 
0.11547571420669556, 0.02538222074508667, 0.413707950806351, 1791403430103684190, 
-0.3338155150413513, 0.17183566093444824, 0.41078844157337263, 1791403430133700516, 
0.22948962450027466, -0.010652661323547363, 0.39029772424306064, 1791403430163698529, 
-0.3667840361595154, -0.15530133247375488, 0.39059169972139535, 1791403430193682312, 
0.3966338634490967, 0.01414567232131958, 0.4043429545665234, 1791403430223744155, 
-0.4131220579147339, 0.19211030006408691, 0.40471722084582895, 1791403430255157339, 
0.29762351512908936, -0.04068183898925781, 0.3762109129696708, 1791403430287156241, 
-0.3915524482727051, -0.15399843454360962, 0.4409188346960422, 1791403430313828535, 
0.5609906315803528, -0.01876842975616455, 0.4052687329788493, 1791403430343786962, 
-0.2713111639022827, 0.2952765226364136, 0.3853731105013716, 1791403430373826161, 
0.4081861972808838, 0.02652508020401001, 0.3718257428890392, 1791403430403833764, 
-0.18116605281829834, -0.11924457550048828, 0.3847525701091454, 1791403430434122970, 
0.07477957010269165, 0.1288270354270935, 0.4056083960035204, 1791403430463893244, 
-0.06655353307723999, 0.21149826049804688, 0.3888665060085547, 1791403430495313249, 
0.126228928565979, 0.013563692569732666, 0.3582557720672995, 1791403430527053321, 
-0.26926642656326294, -0.09618169069290161, 0.42832819325330207, 1791403430554012189, 
0.1789177656173706, 0.06844091415405273, 0.40359960110731385, 1791403430583997335, 
-0.02196437120437622, 0.1867026686668396, 0.3613704659738925, 1791403430607269875, 
0.34454572200775146, -0.17965924739837646, 0.44393548586828185, 1791403430643981128, 
-0.41300785541534424, -0.3627980351448059, 0.4048070344156711, 1791403430673979036, 
0.5076510310173035, 0.030858516693115234, 0.4303638075890683, 1791403430703992785, 
-0.5396806001663208, 0.27309757471084595, 0.3953836336966585, 1791403430735217192, 
0.5764574408531189, -0.11664527654647827, 0.35919718786526966, 1791403430767042214, 
-0.4958030581474304, -0.22474032640457153, 0.4421744884207334, 1791403430794116961, 
0.8544526100158691, 0.10188621282577515, 0.420100178849381, 1791403430824105360, 
-0.4034314751625061, 0.25103336572647095, 0.4142377793658522, 1791403430854125370, 
0.2837572693824768, -0.14162075519561768, 0.39910726919573924, 1791403430884168799, 
-0.18410146236419678, -0.13224291801452637, 0.40065904489378223, 1791403430914159747, 
0.14327436685562134, 0.10970211029052734, 0.4070969890707257, 1791403430944212550, 
-0.10369658470153809, 0.24310815334320068, 0.3806030489530373, 1791403430975115384, 
0.036401450634002686, 0.03901439905166626, 0.355267446637179, 1791403431007003944, 
-0.19593995809555054, -0.3368109464645386, 0.42661025265384295, 1791403431044234396, 
0.15234118700027466, 0.2511594891548157, 0.4231048996805233, 1791403431074247205, 
-0.16703659296035767, 0.16421133279800415, 0.4083092762505385, 1791403431104304989, 
-0.0337831974029541, 0.02859640121459961, 0.3749522509008052, 1791403431134763108, 
0.011609017848968506, -0.15647047758102417, 0.35261565935336947, 1791403431166740500, 
-0.010582387447357178, 0.2710498571395874, 0.42758826496836305, 1791403431194308860, 
-0.3153265118598938, 0.19409924745559692, 0.42751178634894804, 1791403431224320616, 
0.15372055768966675, 0.07428532838821411, 0.37815518746535853, 1791403431247362937, 
-0.20706278085708618, 0.024270176887512207, 0.47078934682911483, 1791403431274426915, 
0.15552431344985962, 0.0970800518989563, 0.401530349167383, 1791403431304421954, 
-0.3786270022392273, 0.12344211339950562, 0.38320513247494964, 1791403431334388130, 
0.4493248462677002, 0.013103902339935303, 0.3918596355673899, 1791403431363451489, 
-0.22056281566619873, -0.04528224468231201, 0.4026789297992541, 1791403431393448528, 
0.3193780183792114, 0.05222564935684204, 0.39157872265746196, 1791403431424545592, 
-0.31709223985671997, 0.243877112865448, 0.4255112401700926, 1791403431455037614, 
0.2047523856163025, 0.04383617639541626, 0.3901513687284443, 1791403431487025810, 
-0.2552778124809265, -0.21946585178375244, 0.44629477538687323, 1791403431514510016, 
0.00827091932296753, 0.12177205085754395, 0.39473405772152265, 1791403431544481260, 
-0.16276144981384277, 0.2429947853088379, 0.3803779670958339, 1791403431574503690, 
0.32511067390441895, 0.15570980310440063, 0.3550011862837792, 1791403431604560184, 
-0.0661158561706543, -0.22711801528930664, 0.38473511847828884, 1791403431634757691, 
-0.09532314538955688, 0.11699539422988892, 0.4124079415800813, 1791403431664591308, 
-0.21250540018081665, 0.36800628900527954, 0.40182817638225, 1791403431695382384, 
-0.014200448989868164, 0.026830554008483887, 0.36842383581372884, 1791403431727290687, 
-0.27286332845687866, -0.19872725009918213, 0.4022932489291513, 1791403431756799271, 
-0.35818684101104736, 0.24644184112548828, 0.42593431960179334, 1791403431794653449, 
0.13731521368026733, 0.02729743719100952, 0.4191804373070566, 1791403431824893489, 
-0.015927374362945557, 0.02594071626663208, 0.4226033430748734, 1791403431855051688, 
0.4816059470176697, 0.12869489192962646, 0.39647760903078477, 1791403431886450344, 
-0.3875311613082886, 0.1835750937461853, 0.3985690811099811, 1791403431916719012, 
-0.22396475076675415, 0.033288538455963135, 0.4372358742045928, 1791403431944748793, 
-0.11525124311447144, 0.024531662464141846, 0.4148841715079686, 1791403431974738423, 
-0.06862342357635498, 0.10916769504547119, 0.3705928885394091, 1791403431996782701, 
0.10579061508178711, 0.1595202088356018, 0.42448542703701503, 1791403432034755384, 
-0.15855717658996582, -0.0004703998565673828, 0.41121406971749536, 1791403432064791516, 
-0.013158261775970459, -0.06308591365814209, 0.4157365311178901, 1791403432094883213, 
-0.20204484462738037, 0.2598358392715454, 0.37732050872450007, 1791403432126972359, 
-0.1356661319732666, 0.16140717267990112, 0.3852997981891556, 1791403432156929592, 
0.02470982074737549, -0.2191481590270996, 0.4111661719939336, 1791403432184911619, 
0.0008820891380310059, -0.07029449939727783, 0.4030796932807854, 1791403432214881770, 
0.09695953130722046, 0.28898924589157104, 0.4105612255595009, 1791403432244930893, 
-0.20985937118530273, 0.16525548696517944, 0.4228551358707055, 1791403432274947316, 
0.38187313079833984, -0.06620383262634277, 0.3975908540498203, 1791403432304999941, 
-0.4152233600616455, -0.15985286235809326, 0.3713954511207147, 1791403432335345721, 
0.1534903645515442, 0.2881224751472473, 0.36352603536739336, 1791403432366970302, 
-0.3491121530532837, 0.053416550159454346, 0.39412514574358654, 1791403432397483476, 
0.44784533977508545, 0.04273790121078491, 0.4310305593121263, 1791403432425351192, 
-0.1402023434638977, 0.019477546215057373, 0.4192935177725042, 1791403432454998602, 
-0.0658121109008789, 0.24006158113479614, 0.3766250079562476, 1791403432477909760, 
-0.30782318115234375, 0.010489583015441895, 0.45657052197876835, 1791403432514043007, 
0.11153244972229004, -0.05507349967956543, 0.38866225401596927, 1791403432545101632, 
-0.2780451774597168, 0.168243408203125, 0.4049171550097893, 1791403432575146831, 
0.028575360774993896, 0.23072242736816406, 0.3833470898746648, 1791403432607647794, 
0.3153446316719055, 0.09238958358764648, 0.41286386614690496, 1791403432638015526, 
-0.04218649864196777, -0.014221549034118652, 0.45383899819939955, 1791403432665244268, 
0.02295982837677002, 0.2800667881965637, 0.4085569462149998, 1791403432695178443, 
-0.28032469749450684, 0.2008829116821289, 0.384040295694008, 1791403432725165593, 
0.07035881280899048, -0.17041254043579102, 0.3956157716824887, 1791403432755201213, 
-0.13145029544830322, 0.11939084529876709, 0.4102928876604223, 1791403432785280816, 
0.25133687257766724, 0.30201053619384766, 0.3967288516624841, 1791403432815286988, 
-0.32208096981048584, 0.059718549251556396, 0.3550610369746949, 1791403432847299887, 
0.3040529489517212, -0.20732557773590088, 0.39087173259027636, 1791403432877961820, 
-0.38807177543640137, 0.14242440462112427, 0.4500199529436717, 1791403432905347632, 
0.4968966841697693, 0.2290346622467041, 0.39923873569850815, 1791403432935273570, 
-0.33021992444992065, -0.11686789989471436, 0.4237391714637302, 1791403432965323169, 
0.30827683210372925, -0.058587074279785156, 0.4179432697882482, 1791403432995339311, 
-0.23172056674957275, 0.17904794216156006, 0.4057175860398147, 1791403433025404009, 
0.19491469860076904, 0.05577152967453003, 0.4117593200765335, 1791403433054436084, 
-0.07230061292648315, -0.03658425807952881, 0.36667777476848096, 1791403433086869272, 
0.5429879426956177, 0.14509910345077515, 0.34930082863308815, 1791403433118910292, 
-0.29090040922164917, 0.15501976013183594, 0.4389495748335844, 1791403433145568171, 
-0.05777156352996826, 0.08977842330932617, 0.4247383553717179, 1791403433175588587, 
0.1590045690536499, 0.018801629543304443, 0.444078203446183, 1791403433205486480, 
-0.22374510765075684, 0.2920875549316406, 0.42013259109798157, 1791403433234442666, 
-0.0525975227355957, -0.01999717950820923, 0.39401368956124594, 1791403433264465002, 
-0.12559187412261963, -0.05177271366119385, 0.3851234751954448, 1791403433295570431, 
-0.13854146003723145, 0.07744669914245605, 0.394977380301066, 1791403433326921683, 
-0.055002450942993164, 0.30789870023727417, 0.3887034997860127, 1791403433359179263, 
0.2807062268257141, -0.006037771701812744, 0.4781230365645987, 1791403433385572162, 
-0.10999828577041626, -0.16920316219329834, 0.4212129226876782, 1791403433415594675, 
0.14353787899017334, 0.14124685525894165, 0.3926576403103554, 1791403433445582593, 
-0.22588318586349487, 0.16994524002075195, 0.3785314978362294, 1791403433475626498, 
0.22347158193588257, 0.012533009052276611, 0.3910121345634974, 1791403433505623491, 
0.040632426738739014, -0.013729453086853027, 0.39745333636967783, 1791403433535709780, 
-0.010004281997680664, 0.2178105115890503, 0.37845141462203835, 1791403433567196282, 
0.040735840797424316, 0.061593830585479736, 0.37750971114429854, 1791403433598787172, 
-0.12105119228363037, 0.08276331424713135, 0.446241651497347, 1791403433625762151, 
0.014990270137786865, -0.12389147281646729, 0.39471277380935793, 1791403433655747356, 
0.07785952091217041, 0.36850422620773315, 0.3318681249227008, 1791403433679244562, 
0.054741501808166504, -0.026775717735290527, 0.46994701156048924, 1791403433705787442, 
0.292310893535614, -0.09851974248886108, 0.41151666429895656, 1791403433735815997, 
-0.42573678493499756, 0.051380276679992676, 0.3625281105937281, 1791403433758820735, 
0.2551928758621216, 0.19735246896743774, 0.4388492394156937, 1791403433795792164, 
-0.3979007601737976, -0.11775201559066772, 0.40083058646319036, 1791403433825799188, 
0.3727880120277405, 0.0383719801902771, 0.3884048599076413, 1791403433855892117, 
-0.25094032287597656, 0.1461416482925415, 0.3967947417485173, 1791403433886956089, 
0.3995491862297058, 0.05495935678482056, 0.3999171022051525, 1791403433918896642, 
-0.21961688995361328, -0.03532075881958008, 0.4571569670057246, 1791403433945930317, 
0.10093694925308228, -0.12788361310958862, 0.3914129808493191, 1791403433975951078, 
-0.2947807312011719, 0.187430739402771, 0.41437912249711895, 1791403434005988450, 
0.0677652359008789, -0.01680278778076172, 0.41740536897960673, 1791403434036116794, 
0.130720317363739, 0.0638851523399353, 0.38269473847202046, 1791403434065930891, 
0.005997896194458008, 0.20226514339447021, 0.38343836417924787, 1791403434096037632, 
0.13659942150115967, 0.06282651424407959, 0.3900610148014929, 1791403434127366188, 
-0.12262022495269775, -0.004095494747161865, 0.3932154561659751, 1791403434159097197, 
0.0689353346824646, 0.14343196153640747, 0.44801332391683046, 1791403434186015288, 
0.006069481372833252, 0.1636354923248291, 0.40644799529896863, 1791403434216064932, 
-0.010979413986206055, 0.054412126541137695, 0.4022529469202468, 1791403434246031626, 
-0.07918483018875122, -0.04776489734649658, 0.3967943904962876, 1791403434276085997, 
-0.03984963893890381, 0.30191874504089355, 0.39249712292944344, 1791403434306090106, 
-0.13317501544952393, 0.0013949871063232422, 0.41883555320025156, 1791403434336152081, 
-0.2678449749946594, 0.02396148443222046, 0.40958234254859666, 1791403434367179698, 
0.006528079509735107, 0.17614078521728516, 0.4170292468769522, 1791403434398062250, 
-0.14190959930419922, 0.2659251093864441, 0.4485285277108882, 1791403434425186062, 
0.372566282749176, -0.09306252002716064, 0.4026149689328142, 1791403434455229705, 
-0.09718149900436401, -0.06977009773254395, 0.38159958760427887, 1791403434486187428, 
0.16767072677612305, 0.15110868215560913, 0.39518153183535426, 1791403434516208348, 
-0.15463221073150635, 0.01666051149368286, 0.4180050578465463, 1791403434546229491, 
0.019353389739990234, -0.005078554153442383, 0.40235067271169234, 1791403434576292920, 
-0.19066673517227173, 0.12427353858947754, 0.363639382267094, 1791403434606948644, 
0.32941126823425293, 0.24228674173355103, 0.36447790029888144, 1791403434639379178, 
0.04293245077133179, -0.20805680751800537, 0.4630813664048556, 1791403434666314358, 
-0.1259913444519043, -0.008289039134979248, 0.40639331493945735, 1791403434696363306, 
-0.23514515161514282, 0.13705646991729736, 0.41257500292568744, 1791403434726334615, 
-0.14961713552474976, 0.09662282466888428, 0.41872194067707874, 1791403434755452521, 
0.28111714124679565, -0.09122365713119507, 0.3714052234557349, 1791403434786388365, 
-0.07692795991897583, 0.13554388284683228, 0.39869726040092013, 1791403434815473895, 
0.2613896131515503, 0.14933520555496216, 0.37232969406442445, 1791403434847562080, 
-0.40181654691696167, -0.16433805227279663, 0.39663941040733997, 1791403434878995656, 
0.0926254391670227, 0.27760255336761475, 0.44254455178278507, 1791403434906692939, 
0.16838914155960083, 0.05671197175979614, 0.4226594001493576, 1791403434945464936, 
-0.5545530319213867, -0.2525354027748108, 0.38931073893529383, 1791403434976537519, 
0.3465520143508911, 0.2637205123901367, 0.4045145890713609, 1791403435006966034, 
-0.20501023530960083, 0.31577175855636597, 0.3744109528849349, 1791403435039089069, 
0.33405619859695435, -0.1576904058456421, 0.44589595496450724, 1791403435066575298, 
-0.03607892990112305, -0.21335113048553467, 0.41307399625181884, 1791403435096529744, 
0.13419371843338013, 0.22199982404708862, 0.3751050318780138, 1791403435126532118, 
-0.07510781288146973, 0.067271888256073, 0.4060620898860361, 1791403435156606054, 
0.22929716110229492, -0.12490159273147583, 0.4248586442913231, 1791403435186598553, 
-0.009970784187316895, 0.3728356957435608, 0.4038216545620801, 1791403435216631535, 
-0.2226419448852539, 0.1928141713142395, 0.36790693208702097, 1791403435247572713, 
-0.10522216558456421, -0.2170352339744568, 0.37960189899244073, 1791403435279308502, 
-0.2771635055541992, -0.04536092281341553, 0.4388673473684155, 1791403435306774446, 
0.356609582901001, 0.2553144097328186, 0.3761303285263063, 1791403435336797268, 
-0.30068325996398926, -0.04774385690689087, 0.3931492693487932, 1791403435366692809, 
0.6297710537910461, -0.03220522403717041, 0.4194738965055663, 1791403435396446778, 
-0.573157548904419, 0.18414777517318726, 0.41433059175308284, 1791403435427414730, 
0.35339421033859253, 0.03610634803771973, 0.42029332580657913, 1791403435456450955, 
-0.43157655000686646, -0.2863538861274719, 0.3835556847381974, 1791403435487485162, 
0.4078497290611267, 0.018511176109313965, 0.37427146499364183, 1791403435519284718, 
-0.2871054410934448, 0.1432657241821289, 0.4381289464872282, 1791403435546806715, 
0.5056838989257812, 0.04304707050323486, 0.4164949534505458, 1791403435576465423, 
-0.08154171705245972, 0.22929275035858154, 0.3902918555067374, 1791403435607428147, 
