acc_x, acc_y, angular_z, stamp, 
-0.0033262968063354492, -0.01912754774093628, 0.00021516238313876998, 1791403345178205577, 
-0.010413050651550293, 0.0028516650199890137, 0.0002546691468223662, 1791403345205238045, 
0.03269988298416138, -0.011258125305175781, 0.00023083484018805532, 1791403345235126242, 
-0.012351274490356445, 0.015799403190612793, 0.0002294454639882366, 1791403345265195419, 
0.009204685688018799, -0.02535337209701538, 0.00022950259981525402, 1791403345295192188, 
0.0018474459648132324, 0.01626664400100708, 0.0002293942786112397, 1791403345325235601, 
0.00012433528900146484, 0.005602717399597168, 0.000230031704453396, 1791403345355228154, 
-0.01582854986190796, -0.0015711784362792969, 0.0002198040655394471, 1791403345386650172, 
0.002412736415863037, -0.0051253437995910645, 0.00021845877846111427, 1791403345418231580, 
0.007791638374328613, -0.010438621044158936, 0.00025392424782320016, 1791403345445372689, 
-0.015321552753448486, -0.017337381839752197, 0.00023054769098046656, 1791403345475330421, 
0.006336867809295654, 0.0061702728271484375, 0.00023011105460474842, 1791403345505344988, 
-0.00956571102142334, -0.025966644287109375, 0.00023034463190039597, 1791403345535296762, 
-0.023872792720794678, -0.015062153339385986, 0.0002291422681238157, 1791403345565373181, 
-0.01450878381729126, -0.04162317514419556, 0.00023054617125303634, 1791403345595331073, 
-0.0017837285995483398, -0.0016257762908935547, 0.00022365651445069285, 1791403345626245091, 
0.002043426036834717, 0.005925595760345459, 0.00021598059028077497, 1791403345658257760, 
-0.02656710147857666, -0.01708984375, 0.00025426800347839415, 1791403345685420678, 
-0.021152019500732422, -0.016793906688690186, 0.00023002344088464692, 1791403345715414178, 
0.025646746158599854, -0.011043012142181396, 0.00023003069399444995, 1791403345745503883, 
0.0024046897888183594, 0.007206439971923828, 0.00023090523525835885, 1791403345775479615, 
0.0115012526512146, 0.00014829635620117188, 0.00022988718668695308, 1791403345805555676, 
0.02036452293395996, -0.010559558868408203, 0.00023068165273411312, 1791403345835495867, 
-0.013773500919342041, -0.012364029884338379, 0.0002248114539639948, 1791403345866284145, 
0.013244092464447021, 0.005638420581817627, 0.0002131478586706751, 1791403345898687277, 
0.0006462931632995605, 0.027102768421173096, 0.0002558180609888723, 1791403345925627351, 
0.036491453647613525, 0.019750654697418213, 0.00022984357256549507, 1791403345955579511, 
-0.0014405250549316406, -0.005611062049865723, 0.0002296676754731058, 1791403345985587087, 
0.0036157965660095215, -0.01120007038116455, 0.00023766590788355384, 1791403346014553490, 
-0.021678626537322998, -0.013080298900604248, 0.0002213272838210557, 1791403346045624576, 
0.017701268196105957, 0.0209658145904541, 0.00022917369151212745, 1791403346075599359, 
0.004703402519226074, -0.0008623003959655762, 0.00022190530516648342, 1791403346106488817, 
-0.009858965873718262, -0.029597163200378418, 0.00021417165486473954, 1791403346138528477, 
0.008024156093597412, -0.004301667213439941, 0.00025177564978237936, 1791403346165753256, 
-0.00473785400390625, 0.010020077228546143, 0.00022832932352754513, 1791403346195708397, 
0.022112667560577393, 0.0028133392333984375, 0.00022758972605478294, 1791403346225793622, 
0.005470216274261475, 0.009836673736572266, 0.00022859251872777475, 1791403346255779466, 
-0.01637434959411621, -0.010036766529083252, 0.00022767445873806444, 1791403346285886229, 
0.007071018218994141, 0.004362046718597412, 0.0002285004834263968, 1791403346315753733, 
0.006902158260345459, 0.022117316722869873, 0.0002188305572206915, 1791403346346941049, 
0.0068988800048828125, 0.0077304840087890625, 0.00021585153974231687, 1791403346378558780, 
-0.00046241283416748047, -0.012132108211517334, 0.0002493651830888947, 1791403346405927214, 
-0.005971193313598633, -0.012174069881439209, 0.0002282955894624077, 1791403346435821502, 
-0.005909323692321777, -0.010334372520446777, 0.00022687773023299205, 1791403346465869777, 
0.006638884544372559, -0.0013820528984069824, 0.0002274220532115379, 1791403346495846135, 
-0.002400040626525879, -0.017599642276763916, 0.0002265417503844522, 1791403346525938964, 
-0.02581411600112915, -0.01754939556121826, 0.00022758624498991862, 1791403346555926425, 
-0.002232849597930908, 0.04535788297653198, 0.00022289174356512087, 1791403346586545480, 
0.01762402057647705, 0.012787342071533203, 0.00021493849750397925, 1791403346618297508, 
-0.014493286609649658, 0.010775268077850342, 0.0002456764878234944, 1791403346646046524, 
-0.003473341464996338, -0.005495786666870117, 0.00022789161853236612, 1791403346675993786, 
-0.008558928966522217, -0.003659486770629883, 0.00022528015744699366, 1791403346706255132, 
0.002325713634490967, 0.0231667160987854, 0.00022844985238442106, 1791403346736096612, 
0.011334359645843506, -0.01821160316467285, 0.00022608019986944893, 1791403346766283828, 
-0.026446521282196045, -0.01633286476135254, 0.00022912977520884173, 1791403346796036754, 
-0.04057031869888306, 0.00547260046005249, 0.0002250409175294198, 1791403346826297161, 
-0.006133973598480225, 0.023501098155975342, 0.00020955375428208478, 1791403346858865088, 
-0.0022415518760681152, -0.012326419353485107, 0.00025015712036077173, 1791403346886176651, 
-0.00032258033752441406, -0.010395467281341553, 0.0002284737971254296, 1791403346916080216, 
-0.012658417224884033, -0.0029729604721069336, 0.00022720819969724085, 1791403346946183132, 
0.0307428240776062, 0.01695561408996582, 0.0002278849717841592, 1791403346976163942, 
0.016576409339904785, -0.009983658790588379, 0.00022785704513022297, 1791403347006181125, 
-0.0030648112297058105, -0.006499171257019043, 0.00022797498506968252, 1791403347036182777, 
-0.008141040802001953, 0.004326879978179932, 0.00022486315910808237, 1791403347066500217, 
0.010010004043579102, -0.0028163790702819824, 0.00021434051954332021, 1791403347098306017, 
-0.01852494478225708, 0.018717825412750244, 0.00024308338327904875, 1791403347126351019, 
0.022727906703948975, 0.011180341243743896, 0.00022791634560771252, 1791403347156262336, 
0.0047168731689453125, -0.00530087947845459, 0.00022720721085516985, 1791403347186267021, 
0.009989738464355469, -0.019763052463531494, 0.00022705418442500502, 1791403347216259128, 
-0.01709502935409546, 0.003676176071166992, 0.0002263133485494028, 1791403347246349404, 
0.025964975357055664, 0.018005669116973877, 0.00022738619498952376, 1791403347276297709, 
0.00227433443069458, -0.0091286301612854, 0.00022185660216568414, 1791403347306992459, 
-0.007015585899353027, 0.024890244007110596, 0.00021649386495485983, 1791403347338309883, 
-0.020109891891479492, 3.653764724731445e-05, 0.0001606261133182659, 1791403347366418966, 
0.01719057559967041, 0.016337454319000244, 5.4884713157409386e-05, 1791403347396424757, 
0.7306989431381226, 0.030669808387756348, 0.009789401420682157, 1791403347426402691, 
-0.11327731609344482, 0.17444944381713867, 0.041657530815179214, 1791403347456399877, 
1.0465664863586426, -0.013144135475158691, 0.06914833089983206, 1791403347485463220, 
-0.788557767868042, -0.17694979906082153, 0.010433583366233968, 1791403347515460855, 
0.5489553809165955, 0.07555842399597168, 0.029225589133687026, 1791403347546517867, 
-0.6004456281661987, -0.04430490732192993, 0.017385160340963313, 1791403347578328293, 
-0.15308386087417603, -0.15333926677703857, 0.0015749202315349983, 1791403347606710534, 
-0.3146533966064453, -0.09653854370117188, -0.002283675536327109, 1791403347636601117, 
0.009651482105255127, 0.11123323440551758, 0.008047298325617167, 1791403347666483623, 
0.2594034671783447, 0.14220619201660156, -0.015010357366214207, 1791403347696521202, 
-0.20395541191101074, -0.02480149269104004, -0.010247185396331182, 1791403347726523533, 
-0.027409374713897705, -0.021238327026367188, 0.004294590856108376, 1791403347756550674, 
-0.03410148620605469, -0.12611818313598633, 0.022172755054543906, 1791403347786574545, 
0.16078996658325195, 0.15880095958709717, 0.0026272578839088576, 1791403347819383345, 
-0.24166232347488403, 0.06472170352935791, 0.0021731250435731413, 1791403347846687537, 
-0.05759298801422119, -0.016533195972442627, 0.021887558872744156, 1791403347876632977, 
0.24771565198898315, -0.12140607833862305, 0.019503828668179447, 1791403347906669328, 
-0.004758000373840332, -0.09775650501251221, 0.0025079237024074955, 1791403347928784730, 
-0.04435354471206665, 0.1572345495223999, 0.005931968447107595, 1791403347965712835, 
-0.2421872615814209, 0.07344520092010498, 0.049223578808695906, 1791403347996753795, 
0.12315249443054199, -0.1381162405014038, 0.07495130107888011, 1791403348026727053, 
0.13194072246551514, -0.061837613582611084, 0.030131262119777492, 1791403348058378207, 
-0.1808653473854065, -0.05216497182846069, -0.004452927442946591, 1791403348089261286, 
0.08421909809112549, 0.14125317335128784, -0.029882208343102023, 1791403348116820824, 
0.12465775012969971, -0.06945258378982544, -0.012761679845452071, 1791403348146793641, 
0.07117992639541626, -0.003692448139190674, -0.020354312164215082, 1791403348176786224, 
-0.11237150430679321, 0.05977553129196167, -0.005104400294819801, 1791403348206817428, 
-0.039906442165374756, 0.10671263933181763, 0.019391456438903925, 1791403348236806311, 
0.03139996528625488, -0.048414528369903564, 0.011289208094589944, 1791403348267051607, 
0.06872761249542236, -0.1325938105583191, -0.01676320525922997, 1791403348298423968, 
-0.15257036685943604, 0.02221590280532837, -0.031063991220067765, 1791403348329726906, 
0.06167632341384888, 0.10605776309967041, -0.024608775342760847, 1791403348356919340, 
0.1962088942527771, -0.09668350219726562, -0.03852977410474867, 1791403348387004544, 
0.24282032251358032, -0.10283344984054565, -0.05457418595207883, 1791403348417207103, 
-0.13909214735031128, 0.09064215421676636, -0.01475229482581404, 1791403348447030746, 
-0.00036150217056274414, 0.12104326486587524, 0.009970207373513812, 1791403348477045229, 
-0.07687503099441528, -0.09172624349594116, 0.004973854418360142, 1791403348507087841, 
0.11212384700775146, -0.11768245697021484, -0.013319069982365522, 1791403348538581442, 
-0.12945616245269775, -0.027618467807769775, 0.010502187636600668, 1791403348570090107, 
0.019469738006591797, 0.13009268045425415, 0.01964521017137788, 1791403348597264065, 
-0.1738569140434265, -0.01683264970779419, 0.006990922140358415, 1791403348627033425, 
0.05957937240600586, -0.018313169479370117, -0.01868786897305306, 1791403348657149837, 
-0.21921581029891968, -0.15970319509506226, 8.182475567766867e-05, 1791403348687104900, 
0.2405949831008911, 0.054065704345703125, 0.00023756875998765832, 1791403348716456379, 
-0.04217982292175293, -0.003324151039123535, 0.0003704764365498413, 1791403348747217402, 
0.14289575815200806, -0.015049755573272705, -0.010878695819567371, 1791403348778855199, 
-0.16286641359329224, 0.03344660997390747, 0.010257301371256241, 1791403348810620034, 
0.08454209566116333, -0.0532451868057251, 0.011454020316211918, 1791403348837224684, 
-0.03509610891342163, -0.009625136852264404, -0.010259432097700987, 1791403348867230346, 
0.2086201310157776, -0.0061432719230651855, -0.002377651554612749, 1791403348897964578, 
-0.14029717445373535, 0.01342099905014038, 0.012265191825325946, 1791403348927963343, 
0.06451314687728882, 0.021696627140045166, 0.014214051774103075, 1791403348958017009, 
-0.15465819835662842, 0.039936184883117676, -0.010767310535519744, 1791403348988104258, 
0.08244043588638306, -0.06910949945449829, -0.014533939854896235, 1791403349018417757, 
-0.07760381698608398, -0.03477013111114502, 0.0018425281254110665, 1791403349050915064, 
0.19332081079483032, 0.01921248435974121, 0.00338207919695666, 1791403349077998315, 
0.1891196370124817, 0.10645860433578491, -0.014159960678778128, 1791403349107983006, 
-0.19022148847579956, -0.06572943925857544, -0.0027872524946759075, 1791403349138019145, 
-0.0671188235282898, -0.001500248908996582, 0.008394016805562215, 1791403349167982744, 
0.11119014024734497, 0.09366768598556519, 0.003913501446715873, 1791403349198067809, 
0.08993852138519287, -0.03597605228424072, 0.0021753232627993043, 1791403349228040691, 
-0.037132441997528076, 0.015191853046417236, 0.0036581823395873763, 1791403349257432581, 
0.008206486701965332, 0.020638227462768555, 0.007748572534098387, 1791403349290557403, 
0.04630470275878906, 0.0018815398216247559, -0.008790638503185814, 1791403349318192100, 
-0.011336266994476318, -0.08483302593231201, -0.009027845038435286, 1791403349348131674, 
0.1238446831703186, 0.010948419570922852, -0.007768788397527112, 1791403349378057968, 
-0.15698528289794922, -0.04963052272796631, 0.0035981145959917216, 1791403349408059088, 
0.2929497957229614, -0.01652127504348755, 0.007134479919068071, 1791403349438123199, 
0.009597957134246826, 0.1045641303062439, -0.0012096948109978822, 1791403349468048345, 
0.0834653377532959, -0.0385894775390625, -0.0008075952292312766, 1791403349498761908, 
0.1007046103477478, -0.08637189865112305, -0.0001279290222227927, 1791403349530564866, 
-0.006527364253997803, 0.07978135347366333, -0.007878200433516336, 1791403349558086605, 
-0.05758547782897949, -0.0049079060554504395, -0.007218439141083888, 1791403349588066952, 
0.005768418312072754, -0.09198617935180664, -0.006870569885856413, 1791403349618128156, 
-0.059314191341400146, -0.03210484981536865, -0.01131210617944085, 1791403349648153199, 
0.08272331953048706, -0.03128284215927124, -0.0013763398790498987, 1791403349678181765, 
0.10297811031341553, 0.06783372163772583, 0.0026989014784044693, 1791403349708124634, 
0.004415750503540039, 0.0417819619178772, 0.007864036931571939, 1791403349737453441, 
0.08069866895675659, -0.0732797384262085, 0.004780149945579727, 1791403349771012828, 
0.03573274612426758, 0.012763738632202148, -0.006089165807476923, 1791403349797869175, 
-0.006539285182952881, 0.05073767900466919, -0.006176501253490842, 1791403349827787598, 
-0.09729373455047607, -0.04867279529571533, -0.018144201025156743, 1791403349856765148, 
0.021780788898468018, 0.02027493715286255, -0.011245427707136622, 1791403349887823823, 
0.003380715847015381, -0.04439663887023926, 0.015288408585834091, 1791403349917824650, 
0.05864435434341431, 0.0034066438674926758, 0.010175701290241701, 1791403349947827307, 
0.06391936540603638, 0.05237424373626709, 0.002980957370902596, 1791403349978754201, 
-0.10275852680206299, 0.0175703763961792, -0.0007849042586620632, 1791403350010571715, 
0.1523464322090149, -0.04004091024398804, -0.006155268084780515, 1791403350037948120, 
-0.38033437728881836, 0.0247231125831604, -0.012373501299076719, 1791403350067934012, 
0.27257293462753296, 0.042335331439971924, -0.002958073780421328, 1791403350097929078, 
0.05371522903442383, -0.060301780700683594, 0.009082876771552654, 1791403350127982028, 
0.23052966594696045, 0.08228826522827148, 0.001504424487334457, 1791403350158053259, 
-0.2097935676574707, 0.03821653127670288, 0.0003677049333360708, 1791403350188184387, 
0.3206225037574768, 0.04392653703689575, 0.005778603865073568, 1791403350219012455, 
-0.35218489170074463, 0.01411348581314087, -0.007005464715194414, 1791403350250741251, 
0.20459169149398804, -0.019613265991210938, -0.012584110992517423, 1791403350278048699, 
-0.2340611219406128, -0.057746708393096924, -0.001921424023157622, 1791403350308072142, 
0.4911031723022461, 0.059208691120147705, 0.009141538734838264, 1791403350338036770, 
-0.26877325773239136, 0.0935317873954773, 0.0073101333385527665, 1791403350368052892, 
0.37875956296920776, -0.033219099044799805, 0.007521191452706974, 1791403350398092665, 
-0.4513104557991028, 0.06023436784744263, -0.011326046762790774, 1791403350428104981, 
0.35068970918655396, -0.05646330118179321, -0.001665835262002361, 1791403350458498314, 
-0.4397470951080322, -0.014415144920349121, 0.005978883547158675, 1791403350490672461, 
0.5434375405311584, 0.09600675106048584, 0.009342900337227327, 1791403350518221943, 
-0.29365819692611694, 0.1324172019958496, -0.0008772837775664414, 1791403350548206482, 
0.45630204677581787, -0.06268340349197388, -0.0027862144691585627, 1791403350578200776, 
-0.3356296420097351, -0.05070608854293823, 0.011907140135568177, 1791403350608221311, 
0.34065383672714233, -0.0046141743659973145, 0.0057234118794769724, 1791403350638235165, 
-0.3207095265388489, 0.047871291637420654, 0.0009057772985780226, 1791403350668271658, 
0.32909971475601196, -0.008964776992797852, 0.005583509258824938, 1791403350699031687, 
0.011813938617706299, 0.006992995738983154, 0.004801619156926024, 1791403350731330188, 
-0.293800950050354, 0.03956162929534912, 0.0014176691044697222, 1791403350758288278, 
0.16929876804351807, -0.07095032930374146, -0.0033349170872730436, 1791403350788296031, 
-0.06369948387145996, 0.03005349636077881, -0.0024431834662623476, 1791403350818291539, 
0.1547229290008545, 0.030735790729522705, 0.00554144685040893, 1791403350848311807, 
-0.06530410051345825, 0.021293282508850098, -0.005106895359952303, 1791403350878366986, 
-0.06786328554153442, 0.04146319627761841, -0.0012059859113202481, 1791403350908535516, 
0.10395359992980957, -0.04810434579849243, 0.0032504684428585266, 1791403350938509782, 
-0.2371106743812561, -0.032820284366607666, 0.0008653452696823713, 1791403350970961815, 
0.5338045358657837, 0.022093772888183594, 0.0036805142161979026, 1791403350997444267, 
-0.056466758251190186, 0.013166427612304688, 0.0015438897297080853, 1791403351028523209, 
-0.1842626929283142, 0.04375535249710083, 0.00203598149795055, 1791403351068602010, 
-0.09607404470443726, -0.027684032917022705, 0.005532011789119824, 1791403351098548725, 
0.24354833364486694, -0.0268019437789917, 0.006672403688908917, 1791403351130719279, 
-0.05215764045715332, 0.017170310020446777, 0.0036776839518573162, 1791403351158547860, 
-0.02384650707244873, 0.04825448989868164, -0.0005008924607456059, 1791403351188591348, 
0.09490704536437988, -0.05570894479751587, 0.005736908399608581, 1791403351218540000, 
-0.18859505653381348, -0.0834236741065979, 0.01672251476132106, 1791403351248565161, 
0.06003093719482422, -0.04731112718582153, 0.013155477655804063, 1791403351278605502, 
0.12452733516693115, 0.062418222427368164, -0.004072405439805846, 1791403351308641331, 
0.09411740303039551, 0.05762124061584473, -0.02389401694774093, 1791403351338704882, 
-0.288313627243042, -0.10038316249847412, -0.013603986783667171, 1791403351371081515, 
0.13063037395477295, -0.06985598802566528, -0.0008537167768994372, 1791403351400806923, 
-0.10284578800201416, -0.006869971752166748, -0.0001500279766889862, 1791403351428766827, 
0.1516057848930359, 0.029077768325805664, -0.015272227567213017, 1791403351458722693, 
0.10845565795898438, -0.06953465938568115, -0.013811794201170909, 1791403351488715558, 
-0.20006895065307617, -0.058548688888549805, -0.0010032930744072347, 1791403351518804550, 
0.018580198287963867, -0.006773829460144043, 0.001998427869563023, 1791403351548762631, 
0.24358230829238892, -0.013397455215454102, 0.009630709029839, 1791403351578771956, 
-0.03203791379928589, 0.11715269088745117, 0.0023547850877227217, 1791403351610709926, 
-0.199471116065979, -0.016584813594818115, -0.005429151585558717, 1791403351640898874, 
0.10208076238632202, -0.1001424789428711, 0.0036870844314639568, 1791403351668897286, 
-0.08436626195907593, 0.016820073127746582, 0.005924135878268177, 1791403351698790560, 
0.12600940465927124, 0.0972711443901062, 4.535891892233219e-05, 1791403351728850936, 
0.11228781938552856, 0.03226149082183838, -0.013506003539463057, 1791403351757875345, 
-0.042649805545806885, -0.04273945093154907, -0.011619274757945558, 1791403351788874903, 
-0.06422442197799683, -0.060535550117492676, -0.0004918799210434157, 1791403351818958026, 
0.06789124011993408, 0.05835294723510742, -0.0017571136399830158, 1791403351851345192, 
-0.16094893217086792, 0.10802173614501953, -0.009426539136079892, 1791403351881168660, 
0.011929988861083984, -0.05022406578063965, -0.001661632334393235, 1791403351909209038, 
0.11489474773406982, -0.02321559190750122, 0.006304962663892467, 1791403351939015292, 
0.10720092058181763, 0.06813383102416992, 0.004484899492283425, 1791403351968991037, 
-0.04474979639053345, 0.1086391806602478, -0.0036934827760378014, 1791403351999013293, 
-0.15640723705291748, -0.005134224891662598, 0.004804009641165777, 1791403352029062559, 
-0.0991629958152771, -0.013811051845550537, 0.00767513306557303, 1791403352059063312, 
0.06385242938995361, 0.04763209819793701, 0.006022568020390552, 1791403352091146070, 
0.10168963670730591, 0.02753162384033203, 0.003704563830996908, 1791403352121811677, 
-0.2508760094642639, -0.0827111005783081, 0.00044134994119049555, 1791403352149139504, 
0.0672253966331482, -0.06147205829620361, -0.00010874673195521449, 1791403352179129979, 
-0.03329062461853027, -0.011879920959472656, -0.0026403545555805704, 1791403352209135088, 
0.04763317108154297, 0.02915102243423462, -0.01006647182531587, 1791403352239165546, 
0.21253764629364014, 0.022928595542907715, -0.00400871375633479, 1791403352269174825, 
-0.3688983917236328, -0.05090874433517456, -0.0028124014980092918, 1791403352299261437, 
0.2842365503311157, -0.06573635339736938, 0.006043313436693966, 1791403352331289620, 
-0.39279359579086304, 0.09023141860961914, -0.0025185945990000213, 1791403352362644867, 
0.2559430003166199, 0.059258997440338135, -0.010322380105424207, 1791403352389270584, 
0.032577693462371826, -0.09077024459838867, 0.002350640700171656, 1791403352419270058, 
0.10568976402282715, 0.05010116100311279, -0.002080505756437057, 1791403352449276248, 
-0.020452916622161865, -0.1080579161643982, 0.013659216455436758, 1791403352479404606, 
0.10973411798477173, 0.08140480518341064, -0.0036607091520038304, 1791403352509518707, 
-0.05897945165634155, 0.029766559600830078, 0.007209783048469095, 1791403352539336860, 
-0.17086690664291382, 0.1018860936164856, 0.0005460353267104989, 1791403352570782014, 
0.26874738931655884, -0.1276235580444336, -0.00229569966780152, 1791403352602697772, 
-0.007944285869598389, 0.05014145374298096, -0.017205865790894663, 1791403352629555071, 
-0.023854196071624756, -0.020180940628051758, 0.0021694333319540516, 1791403352659413792, 
0.09015023708343506, 0.044519782066345215, 0.014315086499038633, 1791403352688495044, 
0.08852732181549072, 0.05106675624847412, -0.014540691200798036, 1791403352719579850, 
-0.13988137245178223, -0.03409528732299805, -0.012566050081848162, 1791403352749552280, 
-0.09713876247406006, 0.016549766063690186, 0.014036490302336906, 1791403352779659369, 
0.07180386781692505, 0.01662003993988037, 0.006556572167319672, 1791403352810814074, 
0.2146369218826294, -0.03343021869659424, 0.001977194410252592, 1791403352841475286, 
0.016403496265411377, 0.0775599479675293, -0.000876774711595307, 1791403352869689310, 
0.07323509454727173, -0.20465880632400513, -8.794004092264886e-05, 1791403352899583996, 
-0.12217020988464355, 0.01854550838470459, -0.01464278057227163, 1791403352929597678, 
-0.13572967052459717, 0.18933367729187012, 0.0032413900481850673, 1791403352959616734, 
-0.1722918152809143, 0.047725558280944824, 0.0003642330089873049, 1791403352989620375, 
-0.08289933204650879, -0.18147993087768555, -0.019475132701228127, 1791403353019634572, 
0.02268463373184204, -0.08632558584213257, -0.0033508148912999927, 1791403353050888078, 
-0.36266183853149414, 0.08214521408081055, 0.0019854820659784694, 1791403353083041908, 
0.04571247100830078, 0.011601030826568604, 0.0016482652205813838, 1791403353109706902, 
-0.18216931819915771, 0.023037195205688477, 0.003222071192571875, 1791403353139691687, 
0.2451711893081665, -0.05558580160140991, 0.008765186432853869, 1791403353169694186, 
-0.19170284271240234, 0.053961873054504395, 0.00517850319076271, 1791403353199726828, 
-0.004262566566467285, -0.03614199161529541, -0.0011975701864476098, 1791403353229729220, 
-0.06437242031097412, 0.0664592981338501, -0.004412188206726683, 1791403353259757396, 
-0.011597752571105957, -0.02904534339904785, 0.006480849140131764, 1791403353291238567, 
0.06201326847076416, 0.03624141216278076, 0.006146800096724647, 1791403353322783427, 
0.13176482915878296, 0.12364041805267334, 0.003998920832586644, 1791403353349824432, 
-0.3712644577026367, -0.11675989627838135, 0.008552780829104456, 1791403353379789310, 
0.1630740761756897, -0.1297088861465454, 0.002559468909738, 1791403353409789083, 
-0.18593984842300415, 0.21102094650268555, -0.0012224881723773332, 1791403353439805356, 
0.13935387134552002, -0.08898824453353882, 0.011590429004007084, 1791403353469838413, 
-0.09503555297851562, -0.10963785648345947, 0.013542700226876597, 1791403353499873382, 
0.04767090082168579, 0.20994657278060913, 0.00545254663695572, 1791403353531264465, 
-0.12925732135772705, 0.061505138874053955, -0.012495239971798794, 1791403353562726513, 
0.04346233606338501, -0.2528277039527893, 0.0010981785972897, 1791403353588999435, 
-0.15047192573547363, 0.04909604787826538, 0.0017289491866523783, 1791403353620113594, 
-0.07641845941543579, -0.06455743312835693, 0.006145706474234747, 1791403353648972694, 
0.14814156293869019, -0.04898941516876221, 0.022496164720283072, 1791403353680032091, 
0.33553266525268555, 0.14183324575424194, 0.014057835855351489, 1791403353709986284, 
-0.4933244585990906, -0.07249331474304199, -0.009142312380855711, 1791403353738994843, 
0.16623622179031372, -0.20049619674682617, 0.0019230816048893566, 1791403353770757424, 
0.025863826274871826, 0.08484095335006714, -0.0057009643274444684, 1791403353802449644, 
0.12481242418289185, 0.0258675217628479, -0.02737455964186987, 1791403353830386898, 
-0.19771522283554077, -0.028803110122680664, -0.0090691029773335, 1791403353860078806, 
0.05817079544067383, 0.0630078911781311, -0.0019402527783517769, 1791403353890097101, 
-0.1314176321029663, 0.03194016218185425, -0.012214818194228332, 1791403353920103461, 
0.07955014705657959, -0.09655463695526123, 0.00786121048758192, 1791403353950165693, 
-0.061236560344696045, 0.058785080909729004, 0.007793319456628444, 1791403353980172878, 
-0.33697056770324707, 0.04694044589996338, 0.008482614492975271, 1791403354010854801, 
0.263389527797699, 0.005077958106994629, 0.012436385323500125, 1791403354042713800, 
-0.4939218759536743, 0.060423851013183594, 0.0034822943122170447, 1791403354070278078, 
0.29936516284942627, -0.10655975341796875, 0.004551017642089989, 1791403354100226120, 
-0.1991937756538391, 0.04658186435699463, 0.004299583368411193, 1791403354130261750, 
-0.030053257942199707, 0.07320278882980347, -0.00796162739310732, 1791403354160241672, 
0.07463598251342773, -0.026037871837615967, -0.007535938049643671, 1791403354190296353, 
0.3337472081184387, -0.03274226188659668, 0.006265176450049872, 1791403354220293019, 
-0.2812730669975281, -0.027257442474365234, 0.004188336685627193, 1791403354251226931, 
-0.009709417819976807, 0.021306276321411133, 0.0037698708318172785, 1791403354282770280, 
-0.3483225107192993, 0.12155818939208984, 0.013495257791571194, 1791403354310381293, 
0.0197259783744812, -0.06647253036499023, 0.01054998736763093, 1791403354340335016, 
0.02747654914855957, -0.029010117053985596, -0.008469962559406356, 1791403354370354207, 
0.3252856135368347, -0.033466994762420654, -0.009338298678415456, 1791403354400391837, 
0.25685441493988037, 0.09504079818725586, -0.012389261516102017, 1791403354429445078, 
-0.03937476873397827, 0.04872775077819824, -0.009522476476423904, 1791403354460627624, 
0.11474663019180298, -0.03652167320251465, -0.006292088440051618, 1791403354491024834, 
-0.2128516435623169, -0.06704545021057129, -0.020412051065726557, 1791403354522814524, 
-0.22935903072357178, -0.05484682321548462, -0.0005474776024853742, 1791403354550567170, 
0.06528741121292114, 0.188132643699646, 0.0030558379061692152, 1791403354580509919, 
-0.025327861309051514, -0.027177929878234863, -0.003364434191466401, 1791403354610501339, 
0.3165677785873413, -0.15888625383377075, 0.0023538268419873616, 1791403354640538615, 
-0.042729198932647705, 0.11730152368545532, -0.01789823429973849, 1791403354670526609, 
0.07192200422286987, 0.06261289119720459, -0.005629391811225902, 1791403354700521331, 
-0.10944706201553345, 0.08831679821014404, 0.007042948793203344, 1791403354730823548, 
0.08192437887191772, -0.13761091232299805, -0.0036849807209886802, 1791403354763607678, 
-0.03751349449157715, -0.025497257709503174, 0.019892998516719853, 1791403354790666225, 
0.24033629894256592, 0.12872552871704102, 0.011241909421948202, 1791403354820595756, 
-0.10323739051818848, -0.10812801122665405, 0.008704694413950324, 1791403354850643699, 
-0.4821586608886719, -0.22499912977218628, 0.006027981380286071, 1791403354872777706, 
0.2297099232673645, -0.05739778280258179, -0.010684711491708528, 1791403354910906513, 
-0.388586163520813, -0.18779557943344116, 0.0041406381331229695, 1791403354940673298, 
0.32025146484375, 0.08840715885162354, 0.01244840821994353, 1791403354970819868, 
0.023982882499694824, 0.23601704835891724, 0.01177697585670016, 1791403355002898407, 
0.08978778123855591, -0.05547386407852173, 0.008463445142183662, 1791403355033154589, 
0.04449927806854248, -0.1650204062461853, 0.00117021578994146, 1791403355060752231, 
-0.11998391151428223, -0.18073725700378418, 0.014380055711244993, 1791403355090795509, 
0.2943045496940613, 0.0727846622467041, 0.014636948108954736, 1791403355120758467, 
-0.4047544598579407, 0.1613207459449768, -0.004457283311624842, 1791403355150804006, 
0.3754996657371521, -0.13982033729553223, -0.013423455927918656, 1791403355180821789, 
-0.07781982421875, -0.03184241056442261, -0.011642636752755864, 1791403355211523131, 
-0.08298289775848389, 0.024014055728912354, 0.001243992344433976, 1791403355242824543, 
0.10568732023239136, -0.005149185657501221, 0.037149537982958614, 1791403355272910591, 
-0.1207965612411499, 0.021898508071899414, 0.02512028689374084, 1791403355301078546, 
0.03772836923599243, -0.07994741201400757, -0.0165129546559475, 1791403355331273304, 
-0.2486448884010315, -0.13564229011535645, -0.0021573546082308596, 1791403355361002405, 
0.06536787748336792, 0.136233389377594, -0.008656540262709832, 1791403355390949376, 
-0.05140894651412964, -0.004283308982849121, -0.016661851345053498, 1791403355421229249, 
-0.08206641674041748, -0.1350913643836975, -0.006031801941896161, 1791403355451003064, 
0.005072176456451416, 0.0865013599395752, -0.0016020347036981354, 1791403355482807105, 
-0.005204439163208008, 0.04491710662841797, -0.0010227944816729563, 1791403355513566990, 
0.07415372133255005, -0.08755666017532349, 0.00257749570047199, 1791403355541075824, 
-0.5215525031089783, 0.0450015664100647, -0.005699892296279673, 1791403355571031362, 
0.2218770980834961, 0.022347331047058105, -0.004536238429097548, 1791403355601012984, 
-0.018683433532714844, -0.07723832130432129, -0.00403525502156868, 1791403355631092427, 
0.03469616174697876, -0.030109882354736328, -0.003610054494920108, 1791403355660065131, 
0.24510997533798218, 0.09058010578155518, 0.005211673736730624, 1791403355691145182, 
-0.5447595119476318, 0.00239485502243042, -0.011436510886109849, 1791403355723244792, 
0.29568517208099365, -0.06832480430603027, 0.0019836655989928804, 1791403355753928819, 
-0.6650858521461487, -0.052670300006866455, 0.02566104177180044, 1791403355781272409, 
0.8856748342514038, -0.008504748344421387, 0.015418480648269353, 1791403355811228653, 
-0.4253401756286621, -0.07076841592788696, -0.02378680504171584, 1791403355841211301, 
0.4887760281562805, 0.08191174268722534, -0.025478983160707628, 1791403355871227960, 
-0.1355951428413391, 0.1078532338142395, 0.011016744499949145, 1791403355901245827, 
0.04006987810134888, 0.19110286235809326, 0.013108802602171635, 1791403355931316107, 
-0.09922617673873901, -0.05314290523529053, -0.012120670369386504, 1791403355962814353, 
-0.2002016305923462, -0.23041749000549316, -0.011263114979164277, 1791403355993957989, 
0.22044765949249268, 0.041822969913482666, -0.012006566707061224, 1791403356021350714, 
-0.1790871024131775, -0.002471446990966797, -0.009055985192497397, 1791403356051301754, 
0.40419554710388184, 0.03949922323226929, -0.014493542245572784, 1791403356081299554, 
-0.3652923107147217, -0.06181371212005615, 0.012185727832964743, 1791403356111383379, 
0.25071287155151367, -0.0687720775604248, -0.005451777553777028, 1791403356141374333, 
-0.3121044635772705, 0.05444616079330444, 0.006330771592428729, 1791403356171538142, 
0.6591112017631531, -0.06326174736022949, 0.0034310088821276337, 1791403356202937266, 
-0.6653968691825867, -0.053093552589416504, 0.01207463424167643, 1791403356234177536, 
0.8547631502151489, 0.005337357521057129, -0.002875241206049982, 1791403356261525050, 
-0.40505093336105347, 0.16318488121032715, -0.012050713609721753, 1791403356291483725, 
0.34878474473953247, -0.038275957107543945, 0.005211804013485658, 1791403356321481549, 
-0.46366560459136963, 0.1395474672317505, 0.004971039281788682, 1791403356351491474, 
0.08084601163864136, -0.19029700756072998, 0.001425420918597132, 1791403356381712285, 
-0.15822577476501465, 0.1676645278930664, -0.006933615527104838, 1791403356411561276, 
0.0666419267654419, -0.10711449384689331, 0.013015872887405041, 1791403356443510821, 
0.04238635301589966, 0.05096942186355591, 0.02673330545421359, 1791403356474810841, 
-0.2124652862548828, -0.005910813808441162, -0.0034312068375378585, 1791403356501606762, 
0.3187599182128906, 0.0420377254486084, -0.008827351029310194, 1791403356531636151, 
-0.3093714714050293, -0.17956006526947021, 0.01228127625974836, 1791403356561599585, 
0.007238566875457764, 0.08294165134429932, 0.015812635361661064, 1791403356591619694, 
-0.4171518087387085, 0.18447661399841309, 0.01064938560172338, 1791403356621652639, 
0.4387688636779785, 0.09374648332595825, -0.004193543815854977, 1791403356651696084, 
-0.5780894160270691, -0.22200536727905273, -0.014872521545624384, 1791403356683552894, 
0.6449871063232422, 0.053285181522369385, 0.0012184489008124034, 1791403356714800991, 
-0.7585407495498657, 0.08928900957107544, -0.0112630944547394, 1791403356741757080, 
0.4822431802749634, 0.04539036750793457, 0.0034516255314443185, 1791403356771748667, 
-0.4683600068092346, 0.04852229356765747, 0.004731546568520441, 1791403356801701110, 
0.6285735368728638, -0.11191624402999878, -0.010357532908712946, 1791403356831739000, 
-0.41360849142074585, -0.09912377595901489, -0.027463946710925124, 1791403356861765829, 
0.4739843010902405, 0.022136270999908447, -0.018527677239113097, 1791403356891805181, 
-0.39304685592651367, 0.1537800431251526, -0.00719026944547601, 1791403356922921964, 
0.42024534940719604, -0.01781076192855835, -0.005612678933756473, 1791403356954883075, 
-0.10695695877075195, -0.046959519386291504, 0.008516315701078603, 1791403356981868504, 
0.037758588790893555, -0.11036050319671631, 0.004807768230326541, 1791403357011933511, 
0.39416205883026123, 0.10247784852981567, 0.01568782663282303, 1791403357042177209, 
-0.47897911071777344, -0.12573230266571045, 0.0032738581635816224, 1791403357072051974, 
0.22181469202041626, 0.15087205171585083, -0.01863441970468446, 1791403357102028997, 
-0.3113596439361572, -0.1417379379272461, -0.00333643518528591, 1791403357131935999, 
0.13594651222229004, 0.19929230213165283, 0.00034733048012851894, 1791403357163011109, 
-0.30912262201309204, -0.1882508397102356, 0.005323440033710534, 1791403357195265979, 
0.32503896951675415, -0.06338828802108765, 0.0077716465261575395, 1791403357222035937, 
-0.13968372344970703, 0.05519258975982666, 0.02067392706028259, 1791403357251962247, 
0.28477150201797485, 0.027970731258392334, -0.005060254605372013, 1791403357282067713, 
-0.24632203578948975, 0.006816387176513672, -0.00296751512104988, 1791403357312036998, 
0.3412017822265625, -0.043389081954956055, -0.010169159773103172, 1791403357342193227, 
-0.3591323494911194, 0.13328468799591064, 0.006218397800574643, 1791403357372056492, 
